experiment_name,participant,session,age,gender,psychopy_version,date,trial_block,block,trial,hand,congruencyNmin1,congruency,correct_key,feedback,made,response,correct,rt,extra_keys
Feedback,1,1,20,f,2021.2.3,2021_Nov_16_1219,practice,1,1,left,NA,incongruent,g,Feedback,FALSE,NA,NA,NA,"[('f', 0.07909950002795085)]"
Feedback,1,1,20,f,2021.2.3,2021_Nov_16_1219,practice,1,2,right,incongruent,congruent,n,Feedback,TRUE,n,TRUE,582.0363000384532,NA
Feedback,1,1,20,f,2021.2.3,2021_Nov_16_1219,practice,1,3,left,congruent,incongruent,f,Feedback,TRUE,f,TRUE,789.6834000130184,NA
Feedback,1,1,20,f,2021.2.3,2021_Nov_16_1219,practice,1,4,right,incongruent,incongruent,j,Feedback,TRUE,j,TRUE,477.444100077264,NA
Feedback,1,1,20,f,2021.2.3,2021_Nov_16_1219,practice,1,5,left,incongruent,incongruent,g,Feedback,TRUE,g,TRUE,605.2893999731168,NA
Feedback,1,1,20,f,2021.2.3,2021_Nov_16_1219,practice,1,6,right,incongruent,incongruent,j,Feedback,TRUE,j,TRUE,564.8987999884412,NA
Feedback,1,1,20,f,2021.2.3,2021_Nov_16_1219,practice,1,7,left,incongruent,incongruent,f,Feedback,TRUE,f,TRUE,572.7680000127293,NA
Feedback,1,1,20,f,2021.2.3,2021_Nov_16_1219,practice,1,8,right,incongruent,congruent,n,Feedback,TRUE,n,TRUE,380.396500055213,NA
Feedback,1,1,20,f,2021.2.3,2021_Nov_16_1219,practice,1,9,left,congruent,congruent,f,Feedback,TRUE,f,TRUE,508.06340004783124,NA
Feedback,1,1,20,f,2021.2.3,2021_Nov_16_1219,practice,1,10,right,congruent,incongruent,j,Feedback,TRUE,j,TRUE,587.8624000470154,NA
Feedback,1,1,20,f,2021.2.3,2021_Nov_16_1219,practice,1,11,left,incongruent,congruent,f,Feedback,TRUE,f,TRUE,443.62700002966426,NA
Feedback,1,1,20,f,2021.2.3,2021_Nov_16_1219,practice,1,12,right,congruent,congruent,n,Feedback,TRUE,j,FALSE,459.3590999720618,NA
Feedback,1,1,20,f,2021.2.3,2021_Nov_16_1219,practice,1,13,left,congruent,congruent,g,Feedback,TRUE,f,FALSE,914.5824000588618,NA
Feedback,1,1,20,f,2021.2.3,2021_Nov_16_1219,practice,1,14,right,congruent,incongruent,j,Feedback,TRUE,j,TRUE,586.0347000416366,NA
Feedback,1,1,20,f,2021.2.3,2021_Nov_16_1219,practice,1,15,left,incongruent,congruent,g,Feedback,TRUE,g,TRUE,617.9126000497492,NA
Feedback,1,1,20,f,2021.2.3,2021_Nov_16_1219,practice,1,16,right,congruent,congruent,n,Feedback,TRUE,n,TRUE,649.5243000099433,NA
Feedback,1,1,20,f,2021.2.3,2021_Nov_16_1219,practice,1,17,left,congruent,incongruent,g,Feedback,TRUE,g,TRUE,593.3045000419952,NA
Feedback,1,1,20,f,2021.2.3,2021_Nov_16_1219,practice,1,18,right,incongruent,congruent,j,Feedback,TRUE,j,TRUE,489.0679999953136,NA
Feedback,1,1,20,f,2021.2.3,2021_Nov_16_1219,practice,1,19,left,congruent,congruent,f,Feedback,TRUE,f,TRUE,544.6216000127606,NA
Feedback,1,1,20,f,2021.2.3,2021_Nov_16_1219,practice,1,20,right,congruent,incongruent,n,Feedback,TRUE,n,TRUE,480.96160002751253,NA
Feedback,1,1,20,f,2021.2.3,2021_Nov_16_1219,practice,1,21,left,incongruent,incongruent,g,Feedback,TRUE,g,TRUE,576.2904000584967,NA
Feedback,1,1,20,f,2021.2.3,2021_Nov_16_1219,practice,1,22,right,incongruent,incongruent,n,Feedback,TRUE,n,TRUE,575.968399993144,NA
Feedback,1,1,20,f,2021.2.3,2021_Nov_16_1219,practice,1,23,left,incongruent,incongruent,f,Feedback,TRUE,f,TRUE,535.6448999955319,NA
Feedback,1,1,20,f,2021.2.3,2021_Nov_16_1219,practice,1,24,right,incongruent,incongruent,n,Feedback,TRUE,n,TRUE,463.29260006314144,NA
Feedback,1,1,20,f,2021.2.3,2021_Nov_16_1219,trial,1,1,right,incongruent,congruent,j,Feedback,TRUE,j,TRUE,519.7193000349218,NA
Feedback,1,1,20,f,2021.2.3,2021_Nov_16_1219,trial,1,2,left,congruent,congruent,g,Feedback,TRUE,g,TRUE,615.4222000623122,NA
Feedback,1,1,20,f,2021.2.3,2021_Nov_16_1219,trial,1,3,right,congruent,congruent,n,Feedback,TRUE,n,TRUE,743.2154000853186,NA
Feedback,1,1,20,f,2021.2.3,2021_Nov_16_1219,trial,1,4,left,congruent,incongruent,g,Feedback,TRUE,f,FALSE,574.9610999482684,NA
Feedback,1,1,20,f,2021.2.3,2021_Nov_16_1219,trial,1,5,right,incongruent,incongruent,n,Feedback,TRUE,n,TRUE,494.53360005281866,NA
Feedback,1,1,20,f,2021.2.3,2021_Nov_16_1219,trial,1,6,left,incongruent,congruent,g,Feedback,TRUE,g,TRUE,430.4052999941632,NA
Feedback,1,1,20,f,2021.2.3,2021_Nov_16_1219,trial,1,7,right,congruent,congruent,j,Feedback,TRUE,j,TRUE,542.0830000075512,NA
Feedback,1,1,20,f,2021.2.3,2021_Nov_16_1219,trial,1,8,left,congruent,incongruent,g,Feedback,TRUE,g,TRUE,485.87230005068704,NA
Feedback,1,1,20,f,2021.2.3,2021_Nov_16_1219,trial,1,9,right,incongruent,congruent,n,Feedback,TRUE,n,TRUE,549.693200038746,NA
Feedback,1,1,20,f,2021.2.3,2021_Nov_16_1219,trial,1,10,left,congruent,congruent,g,Feedback,TRUE,g,TRUE,653.1625000643544,NA
Feedback,1,1,20,f,2021.2.3,2021_Nov_16_1219,trial,1,11,right,congruent,incongruent,n,Feedback,TRUE,n,TRUE,773.0138000333682,NA
Feedback,1,1,20,f,2021.2.3,2021_Nov_16_1219,trial,1,12,left,incongruent,congruent,f,Feedback,TRUE,g,FALSE,508.84980004047975,NA
Feedback,1,1,20,f,2021.2.3,2021_Nov_16_1219,trial,1,13,right,congruent,incongruent,j,Feedback,TRUE,j,TRUE,548.5372000257485,NA
Feedback,1,1,20,f,2021.2.3,2021_Nov_16_1219,trial,1,14,left,incongruent,incongruent,f,Feedback,TRUE,f,TRUE,556.2873000162654,NA
Feedback,1,1,20,f,2021.2.3,2021_Nov_16_1219,trial,1,15,right,incongruent,incongruent,j,Feedback,TRUE,j,TRUE,483.89069997938327,NA
Feedback,1,1,20,f,2021.2.3,2021_Nov_16_1219,trial,1,16,left,incongruent,incongruent,f,Feedback,TRUE,f,TRUE,547.7875000797212,NA
Feedback,1,1,20,f,2021.2.3,2021_Nov_16_1219,trial,1,17,right,incongruent,incongruent,n,Feedback,TRUE,n,TRUE,507.4396000127308,NA
Feedback,1,1,20,f,2021.2.3,2021_Nov_16_1219,trial,1,18,left,incongruent,incongruent,g,Feedback,TRUE,f,FALSE,555.3094000206329,NA
Feedback,1,1,20,f,2021.2.3,2021_Nov_16_1219,trial,1,19,right,incongruent,incongruent,n,Feedback,TRUE,n,TRUE,498.80760005908064,NA
Feedback,1,1,20,f,2021.2.3,2021_Nov_16_1219,trial,1,20,left,incongruent,congruent,f,Feedback,TRUE,f,TRUE,554.8688999842852,NA
Feedback,1,1,20,f,2021.2.3,2021_Nov_16_1219,trial,1,21,right,congruent,congruent,j,Feedback,TRUE,j,TRUE,450.5216000252401,NA
Feedback,1,1,20,f,2021.2.3,2021_Nov_16_1219,trial,1,22,left,congruent,incongruent,g,Feedback,TRUE,g,TRUE,554.1750999982467,NA
Feedback,1,1,20,f,2021.2.3,2021_Nov_16_1219,trial,1,23,right,incongruent,congruent,n,Feedback,TRUE,n,TRUE,593.7718000495806,NA
Feedback,1,1,20,f,2021.2.3,2021_Nov_16_1219,trial,1,24,left,congruent,incongruent,g,Feedback,TRUE,g,TRUE,897.6565999910235,NA
Feedback,1,1,20,f,2021.2.3,2021_Nov_16_1219,trial,1,25,right,incongruent,congruent,j,Feedback,TRUE,j,TRUE,529.2966999695636,NA
Feedback,1,1,20,f,2021.2.3,2021_Nov_16_1219,trial,1,26,left,congruent,congruent,f,Feedback,TRUE,f,TRUE,593.0798999615945,NA
Feedback,1,1,20,f,2021.2.3,2021_Nov_16_1219,trial,1,27,right,congruent,congruent,n,Feedback,TRUE,n,TRUE,424.77419995702803,NA
Feedback,1,1,20,f,2021.2.3,2021_Nov_16_1219,trial,1,28,left,congruent,congruent,f,Feedback,FALSE,NA,NA,NA,NA
Feedback,1,1,20,f,2021.2.3,2021_Nov_16_1219,trial,1,29,right,congruent,incongruent,n,Feedback,FALSE,NA,NA,NA,NA
Feedback,1,1,20,f,2021.2.3,2021_Nov_16_1219,trial,1,30,left,incongruent,congruent,g,Feedback,TRUE,g,TRUE,520.0680999550968,NA
Feedback,1,1,20,f,2021.2.3,2021_Nov_16_1219,trial,1,31,right,congruent,incongruent,n,Feedback,TRUE,n,TRUE,591.7017000028864,NA
Feedback,1,1,20,f,2021.2.3,2021_Nov_16_1219,trial,1,32,left,incongruent,incongruent,f,Feedback,TRUE,f,TRUE,543.4941999847069,NA
Feedback,1,1,20,f,2021.2.3,2021_Nov_16_1219,trial,1,33,right,incongruent,incongruent,n,Feedback,TRUE,n,TRUE,631.1744000413453,NA
Feedback,1,1,20,f,2021.2.3,2021_Nov_16_1219,trial,1,34,left,incongruent,congruent,f,Feedback,TRUE,f,TRUE,446.8495000619439,NA
Feedback,1,1,20,f,2021.2.3,2021_Nov_16_1219,trial,1,35,right,congruent,incongruent,j,Feedback,TRUE,j,TRUE,478.5369000164792,NA
Feedback,1,1,20,f,2021.2.3,2021_Nov_16_1219,trial,1,36,left,incongruent,incongruent,f,Feedback,TRUE,f,TRUE,550.5159999593161,NA
Feedback,1,1,20,f,2021.2.3,2021_Nov_16_1219,trial,1,37,right,incongruent,incongruent,j,Feedback,TRUE,j,TRUE,502.11729999864474,NA
Feedback,1,1,20,f,2021.2.3,2021_Nov_16_1219,trial,1,38,left,incongruent,congruent,g,Feedback,TRUE,g,TRUE,557.7991000027396,NA
Feedback,1,1,20,f,2021.2.3,2021_Nov_16_1219,trial,1,39,right,congruent,congruent,j,Feedback,TRUE,j,TRUE,413.4482000372375,NA
Feedback,1,1,20,f,2021.2.3,2021_Nov_16_1219,trial,1,40,left,congruent,incongruent,f,Feedback,TRUE,f,TRUE,437.3512999736704,NA
Feedback,1,1,20,f,2021.2.3,2021_Nov_16_1219,trial,1,41,right,incongruent,congruent,n,Feedback,TRUE,n,TRUE,509.120500064455,NA
Feedback,1,1,20,f,2021.2.3,2021_Nov_16_1219,trial,1,42,left,congruent,congruent,f,Feedback,TRUE,f,TRUE,436.8071000208147,NA
Feedback,1,1,20,f,2021.2.3,2021_Nov_16_1219,trial,1,43,right,congruent,incongruent,j,Feedback,TRUE,j,TRUE,532.6346000656486,NA
Feedback,1,1,20,f,2021.2.3,2021_Nov_16_1219,trial,1,44,left,incongruent,congruent,f,Feedback,TRUE,f,TRUE,484.5163999707438,NA
Feedback,1,1,20,f,2021.2.3,2021_Nov_16_1219,trial,1,45,right,congruent,congruent,j,Feedback,TRUE,j,TRUE,508.062700100709,NA
Feedback,1,1,20,f,2021.2.3,2021_Nov_16_1219,trial,1,46,left,congruent,congruent,g,Feedback,TRUE,g,TRUE,427.6701000635512,NA
Feedback,1,1,20,f,2021.2.3,2021_Nov_16_1219,trial,1,47,right,congruent,incongruent,j,Feedback,TRUE,j,TRUE,459.46350001031533,NA
Feedback,1,1,20,f,2021.2.3,2021_Nov_16_1219,trial,1,48,left,incongruent,congruent,g,Feedback,TRUE,g,TRUE,443.17629997385666,NA
Feedback,1,1,20,f,2021.2.3,2021_Nov_16_1219,trial,1,49,right,congruent,congruent,j,Feedback,TRUE,j,TRUE,418.92840003129095,NA
Feedback,1,1,20,f,2021.2.3,2021_Nov_16_1219,trial,1,50,left,congruent,congruent,g,Feedback,TRUE,g,TRUE,426.66310002096,NA
Feedback,1,1,20,f,2021.2.3,2021_Nov_16_1219,trial,1,51,right,congruent,incongruent,j,Feedback,TRUE,j,TRUE,482.27560002123937,NA
Feedback,1,1,20,f,2021.2.3,2021_Nov_16_1219,trial,1,52,left,incongruent,congruent,g,Feedback,TRUE,g,TRUE,674.1072000586428,NA
Feedback,1,1,20,f,2021.2.3,2021_Nov_16_1219,trial,1,53,right,congruent,incongruent,j,Feedback,TRUE,j,TRUE,449.8826000490226,NA
Feedback,1,1,20,f,2021.2.3,2021_Nov_16_1219,trial,1,54,left,incongruent,incongruent,g,Feedback,TRUE,g,TRUE,553.6024000030009,NA
Feedback,1,1,20,f,2021.2.3,2021_Nov_16_1219,trial,1,55,right,incongruent,congruent,j,Feedback,TRUE,j,TRUE,657.3562999838032,NA
Feedback,1,1,20,f,2021.2.3,2021_Nov_16_1219,trial,1,56,left,congruent,incongruent,f,Feedback,TRUE,f,TRUE,481.275200028904,NA
Feedback,1,1,20,f,2021.2.3,2021_Nov_16_1219,trial,1,57,right,incongruent,congruent,n,Feedback,TRUE,n,TRUE,584.6960000344552,NA
Feedback,1,1,20,f,2021.2.3,2021_Nov_16_1219,trial,1,58,left,congruent,congruent,g,Feedback,TRUE,g,TRUE,440.54100004723296,NA
Feedback,1,1,20,f,2021.2.3,2021_Nov_16_1219,trial,1,59,right,congruent,incongruent,n,Feedback,TRUE,n,TRUE,536.1408999888229,NA
Feedback,1,1,20,f,2021.2.3,2021_Nov_16_1219,trial,1,60,left,incongruent,incongruent,g,Feedback,TRUE,g,TRUE,488.03249996854015,NA
Feedback,1,1,20,f,2021.2.3,2021_Nov_16_1219,trial,1,61,right,incongruent,congruent,j,Feedback,TRUE,j,TRUE,455.902400019113,NA
Feedback,1,1,20,f,2021.2.3,2021_Nov_16_1219,trial,1,62,left,congruent,incongruent,g,Feedback,TRUE,g,TRUE,535.5190999689512,NA
Feedback,1,1,20,f,2021.2.3,2021_Nov_16_1219,trial,1,63,right,incongruent,incongruent,j,Feedback,TRUE,j,TRUE,495.0463999994099,NA
Feedback,1,1,20,f,2021.2.3,2021_Nov_16_1219,trial,1,64,left,incongruent,congruent,f,Feedback,TRUE,f,TRUE,590.9733000444251,NA
Feedback,1,1,20,f,2021.2.3,2021_Nov_16_1219,trial,1,65,right,congruent,congruent,j,Feedback,TRUE,j,TRUE,406.6274000797421,"[('j', -0.9362763999961317)]"
Feedback,1,1,20,f,2021.2.3,2021_Nov_16_1219,trial,1,66,left,congruent,incongruent,f,Feedback,TRUE,f,TRUE,550.3846000065096,NA
Feedback,1,1,20,f,2021.2.3,2021_Nov_16_1219,trial,1,67,right,incongruent,congruent,n,Feedback,TRUE,j,FALSE,405.9861999703571,NA
Feedback,1,1,20,f,2021.2.3,2021_Nov_16_1219,trial,1,68,left,congruent,congruent,f,Feedback,TRUE,f,TRUE,565.9100000048056,NA
Feedback,1,1,20,f,2021.2.3,2021_Nov_16_1219,trial,1,69,right,congruent,congruent,n,Feedback,TRUE,n,TRUE,461.4928000373766,NA
Feedback,1,1,20,f,2021.2.3,2021_Nov_16_1219,trial,1,70,left,congruent,congruent,g,Feedback,TRUE,f,FALSE,541.2954000057655,NA
Feedback,1,1,20,f,2021.2.3,2021_Nov_16_1219,trial,1,71,right,congruent,congruent,n,Feedback,TRUE,n,TRUE,397.5784999784082,NA
Feedback,1,1,20,f,2021.2.3,2021_Nov_16_1219,trial,1,72,left,congruent,incongruent,g,Feedback,TRUE,g,TRUE,612.5875000143424,NA
Feedback,1,1,20,f,2021.2.3,2021_Nov_16_1219,trial,1,73,right,incongruent,incongruent,j,Feedback,TRUE,j,TRUE,468.51819998119026,NA
Feedback,1,1,20,f,2021.2.3,2021_Nov_16_1219,trial,1,74,left,incongruent,congruent,f,Feedback,TRUE,f,TRUE,500.302099972032,NA
Feedback,1,1,20,f,2021.2.3,2021_Nov_16_1219,trial,1,75,right,congruent,incongruent,n,Feedback,TRUE,n,TRUE,548.0893001076765,NA
Feedback,1,1,20,f,2021.2.3,2021_Nov_16_1219,trial,1,76,left,incongruent,incongruent,f,Feedback,TRUE,f,TRUE,483.84529998293146,NA
Feedback,1,1,20,f,2021.2.3,2021_Nov_16_1219,trial,1,77,right,incongruent,incongruent,j,Feedback,TRUE,j,TRUE,483.3881000522524,NA
Feedback,1,1,20,f,2021.2.3,2021_Nov_16_1219,trial,1,78,left,incongruent,incongruent,g,Feedback,TRUE,g,TRUE,611.1955999513159,NA
Feedback,1,1,20,f,2021.2.3,2021_Nov_16_1219,trial,1,79,right,incongruent,incongruent,n,Feedback,TRUE,n,TRUE,474.8932000948114,NA
Feedback,1,1,20,f,2021.2.3,2021_Nov_16_1219,trial,1,80,left,incongruent,congruent,g,Feedback,TRUE,g,TRUE,650.6308000534773,NA
Feedback,1,1,20,f,2021.2.3,2021_Nov_16_1219,trial,1,81,right,congruent,congruent,n,Feedback,TRUE,n,TRUE,522.5839000195265,NA
Feedback,1,1,20,f,2021.2.3,2021_Nov_16_1219,trial,1,82,left,congruent,incongruent,f,Feedback,TRUE,f,TRUE,561.9827999616973,NA
Feedback,1,1,20,f,2021.2.3,2021_Nov_16_1219,trial,1,83,right,incongruent,congruent,j,Feedback,TRUE,j,TRUE,505.9322000015525,NA
Feedback,1,1,20,f,2021.2.3,2021_Nov_16_1219,trial,1,84,left,congruent,congruent,f,Feedback,TRUE,f,TRUE,433.57110006036237,NA
Feedback,1,1,20,f,2021.2.3,2021_Nov_16_1219,trial,1,85,right,congruent,congruent,n,Feedback,TRUE,n,TRUE,553.2566999900155,NA
Feedback,1,1,20,f,2021.2.3,2021_Nov_16_1219,trial,1,86,left,congruent,incongruent,f,Feedback,TRUE,f,TRUE,433.0670000053942,NA
Feedback,1,1,20,f,2021.2.3,2021_Nov_16_1219,trial,1,87,right,incongruent,incongruent,n,Feedback,TRUE,n,TRUE,512.6813999959268,NA
Feedback,1,1,20,f,2021.2.3,2021_Nov_16_1219,trial,1,88,left,incongruent,incongruent,g,Feedback,TRUE,g,TRUE,552.3470000480299,NA
Feedback,1,1,20,f,2021.2.3,2021_Nov_16_1219,trial,1,89,right,incongruent,incongruent,j,Feedback,TRUE,j,TRUE,520.2277000644244,NA
Feedback,1,1,20,f,2021.2.3,2021_Nov_16_1219,trial,1,90,left,incongruent,incongruent,g,Feedback,TRUE,g,TRUE,495.97809999249876,NA
Feedback,1,1,20,f,2021.2.3,2021_Nov_16_1219,trial,1,91,right,incongruent,congruent,n,Feedback,TRUE,n,TRUE,607.74050001055,NA
Feedback,1,1,20,f,2021.2.3,2021_Nov_16_1219,trial,1,92,left,congruent,incongruent,f,Feedback,TRUE,f,TRUE,487.60240006959066,NA
Feedback,1,1,20,f,2021.2.3,2021_Nov_16_1219,trial,1,93,right,incongruent,congruent,j,Feedback,TRUE,j,TRUE,423.0502000427805,NA
Feedback,1,1,20,f,2021.2.3,2021_Nov_16_1219,trial,1,94,left,congruent,congruent,f,Feedback,TRUE,f,TRUE,382.9753000754863,NA
Feedback,1,1,20,f,2021.2.3,2021_Nov_16_1219,trial,1,95,right,congruent,incongruent,n,Feedback,TRUE,j,FALSE,350.8677000063474,NA
Feedback,1,1,20,f,2021.2.3,2021_Nov_16_1219,trial,1,96,left,incongruent,incongruent,f,Feedback,TRUE,f,TRUE,486.3916000467723,NA
Feedback,1,1,20,f,2021.2.3,2021_Nov_16_1219,trial,1,97,right,incongruent,congruent,j,Feedback,TRUE,j,TRUE,430.13200006680563,NA
Feedback,1,1,20,f,2021.2.3,2021_Nov_16_1219,trial,2,1,right,congruent,congruent,j,Feedback,TRUE,j,TRUE,381.35480001801625,NA
Feedback,1,1,20,f,2021.2.3,2021_Nov_16_1219,trial,2,2,left,congruent,incongruent,f,Feedback,TRUE,f,TRUE,533.0517999827862,NA
Feedback,1,1,20,f,2021.2.3,2021_Nov_16_1219,trial,2,3,right,incongruent,congruent,j,Feedback,TRUE,j,TRUE,396.75639994675294,NA
Feedback,1,1,20,f,2021.2.3,2021_Nov_16_1219,trial,2,4,left,congruent,congruent,f,Feedback,FALSE,NA,NA,NA,NA
Feedback,1,1,20,f,2021.2.3,2021_Nov_16_1219,trial,2,5,right,congruent,incongruent,n,Feedback,TRUE,n,TRUE,484.45749998791143,NA
Feedback,1,1,20,f,2021.2.3,2021_Nov_16_1219,trial,2,6,left,incongruent,incongruent,g,Feedback,TRUE,f,FALSE,452.0386999938637,NA
Feedback,1,1,20,f,2021.2.3,2021_Nov_16_1219,trial,2,7,right,incongruent,congruent,n,Feedback,TRUE,n,TRUE,531.7781999474389,NA
Feedback,1,1,20,f,2021.2.3,2021_Nov_16_1219,trial,2,8,left,congruent,congruent,g,Feedback,TRUE,g,TRUE,435.49410003470257,NA
Feedback,1,1,20,f,2021.2.3,2021_Nov_16_1219,trial,2,9,right,congruent,congruent,j,Feedback,TRUE,j,TRUE,355.2868000115268,NA
Feedback,1,1,20,f,2021.2.3,2021_Nov_16_1219,trial,2,10,left,congruent,incongruent,f,Feedback,TRUE,f,TRUE,602.9917999985628,NA
Feedback,1,1,20,f,2021.2.3,2021_Nov_16_1219,trial,2,11,right,incongruent,incongruent,n,Feedback,TRUE,n,TRUE,458.70999997714534,NA
Feedback,1,1,20,f,2021.2.3,2021_Nov_16_1219,trial,2,12,left,incongruent,congruent,f,Feedback,TRUE,f,TRUE,530.3365000290796,NA
Feedback,1,1,20,f,2021.2.3,2021_Nov_16_1219,trial,2,13,right,congruent,incongruent,j,Feedback,TRUE,n,FALSE,402.1611000061969,NA
Feedback,1,1,20,f,2021.2.3,2021_Nov_16_1219,trial,2,14,left,incongruent,incongruent,f,Feedback,TRUE,f,TRUE,465.931799961254,NA
Feedback,1,1,20,f,2021.2.3,2021_Nov_16_1219,trial,2,15,right,incongruent,incongruent,n,Feedback,TRUE,n,TRUE,497.75510001927614,NA
Feedback,1,1,20,f,2021.2.3,2021_Nov_16_1219,trial,2,16,left,incongruent,incongruent,g,Feedback,TRUE,g,TRUE,505.4085999727249,NA
Feedback,1,1,20,f,2021.2.3,2021_Nov_16_1219,trial,2,17,right,incongruent,incongruent,j,Feedback,TRUE,j,TRUE,529.1314999922174,NA
Feedback,1,1,20,f,2021.2.3,2021_Nov_16_1219,trial,2,18,left,incongruent,congruent,f,Feedback,TRUE,f,TRUE,608.8509000255729,NA
Feedback,1,1,20,f,2021.2.3,2021_Nov_16_1219,trial,2,19,right,congruent,congruent,j,Feedback,TRUE,j,TRUE,424.5542999706231,NA
Feedback,1,1,20,f,2021.2.3,2021_Nov_16_1219,trial,2,20,left,congruent,incongruent,g,Feedback,TRUE,g,TRUE,680.2259999676608,NA
Feedback,1,1,20,f,2021.2.3,2021_Nov_16_1219,trial,2,21,right,incongruent,incongruent,j,Feedback,TRUE,j,TRUE,504.1623000288382,NA
Feedback,1,1,20,f,2021.2.3,2021_Nov_16_1219,trial,2,22,left,incongruent,incongruent,g,Feedback,TRUE,f,FALSE,430.82770000910386,NA
Feedback,1,1,20,f,2021.2.3,2021_Nov_16_1219,trial,2,23,right,incongruent,congruent,n,Feedback,TRUE,n,TRUE,367.64169996604346,NA
Feedback,1,1,20,f,2021.2.3,2021_Nov_16_1219,trial,2,24,left,congruent,incongruent,f,Feedback,TRUE,f,TRUE,591.2688999669624,NA
Feedback,1,1,20,f,2021.2.3,2021_Nov_16_1219,trial,2,25,right,incongruent,incongruent,j,Feedback,TRUE,j,TRUE,559.0386000694707,NA
Feedback,1,1,20,f,2021.2.3,2021_Nov_16_1219,trial,2,26,left,incongruent,incongruent,f,Feedback,TRUE,f,TRUE,510.92919998336606,NA
Feedback,1,1,20,f,2021.2.3,2021_Nov_16_1219,trial,2,27,right,incongruent,congruent,j,Feedback,TRUE,j,TRUE,422.5518999737685,NA
Feedback,1,1,20,f,2021.2.3,2021_Nov_16_1219,trial,2,28,left,congruent,congruent,f,Feedback,TRUE,f,TRUE,590.1979000191204,NA
Feedback,1,1,20,f,2021.2.3,2021_Nov_16_1219,trial,2,29,right,congruent,incongruent,n,Feedback,TRUE,n,TRUE,453.98980000754796,NA
Feedback,1,1,20,f,2021.2.3,2021_Nov_16_1219,trial,2,30,left,incongruent,incongruent,f,Feedback,TRUE,f,TRUE,453.674900054466,NA
Feedback,1,1,20,f,2021.2.3,2021_Nov_16_1219,trial,2,31,right,incongruent,incongruent,j,Feedback,TRUE,j,TRUE,365.2984999935138,NA
Feedback,1,1,20,f,2021.2.3,2021_Nov_16_1219,trial,2,32,left,incongruent,incongruent,f,Feedback,FALSE,NA,NA,NA,NA
Feedback,1,1,20,f,2021.2.3,2021_Nov_16_1219,trial,2,33,right,incongruent,incongruent,j,Feedback,TRUE,j,TRUE,492.85000003874325,NA
Feedback,1,1,20,f,2021.2.3,2021_Nov_16_1219,trial,2,34,left,incongruent,congruent,f,Feedback,FALSE,NA,NA,NA,NA
Feedback,1,1,20,f,2021.2.3,2021_Nov_16_1219,trial,2,35,right,congruent,incongruent,n,Feedback,FALSE,NA,NA,NA,NA
Feedback,1,1,20,f,2021.2.3,2021_Nov_16_1219,trial,2,36,left,incongruent,congruent,g,Feedback,TRUE,f,FALSE,676.0209999629299,"[('g', -0.38659529999131337)]"
Feedback,1,1,20,f,2021.2.3,2021_Nov_16_1219,trial,2,37,right,congruent,congruent,j,Feedback,TRUE,j,TRUE,403.9061000221409,NA
Feedback,1,1,20,f,2021.2.3,2021_Nov_16_1219,trial,2,38,left,congruent,incongruent,f,Feedback,TRUE,f,TRUE,515.4190000030212,NA
Feedback,1,1,20,f,2021.2.3,2021_Nov_16_1219,trial,2,39,right,incongruent,congruent,n,Feedback,TRUE,n,TRUE,611.1489000613799,NA
Feedback,1,1,20,f,2021.2.3,2021_Nov_16_1219,trial,2,40,left,congruent,incongruent,g,Feedback,TRUE,g,TRUE,626.9121999503113,NA
Feedback,1,1,20,f,2021.2.3,2021_Nov_16_1219,trial,2,41,right,incongruent,congruent,j,Feedback,TRUE,j,TRUE,378.64869995974004,NA
Feedback,1,1,20,f,2021.2.3,2021_Nov_16_1219,trial,2,42,left,congruent,congruent,g,Feedback,FALSE,NA,NA,NA,NA
Feedback,1,1,20,f,2021.2.3,2021_Nov_16_1219,trial,2,43,right,congruent,congruent,n,Feedback,TRUE,n,TRUE,490.1727999676948,NA
Feedback,1,1,20,f,2021.2.3,2021_Nov_16_1219,trial,2,44,left,congruent,incongruent,g,Feedback,TRUE,f,FALSE,409.9846999743022,NA
Feedback,1,1,20,f,2021.2.3,2021_Nov_16_1219,trial,2,45,right,incongruent,congruent,j,Feedback,TRUE,j,TRUE,473.70140004204586,NA
Feedback,1,1,20,f,2021.2.3,2021_Nov_16_1219,trial,2,46,left,congruent,congruent,f,Feedback,TRUE,f,TRUE,481.29629995673895,NA
Feedback,1,1,20,f,2021.2.3,2021_Nov_16_1219,trial,2,47,right,congruent,congruent,j,Feedback,TRUE,j,TRUE,417.1212999499403,NA
Feedback,1,1,20,f,2021.2.3,2021_Nov_16_1219,trial,2,48,left,congruent,congruent,g,Feedback,TRUE,g,TRUE,416.89970006700605,NA
Feedback,1,1,20,f,2021.2.3,2021_Nov_16_1219,trial,2,49,right,congruent,incongruent,j,Feedback,TRUE,j,TRUE,552.4480000021867,NA
Feedback,1,1,20,f,2021.2.3,2021_Nov_16_1219,trial,2,50,left,incongruent,incongruent,g,Feedback,TRUE,g,TRUE,640.3504999470895,NA
Feedback,1,1,20,f,2021.2.3,2021_Nov_16_1219,trial,2,51,right,incongruent,incongruent,n,Feedback,TRUE,n,TRUE,504.0342999855054,NA
Feedback,1,1,20,f,2021.2.3,2021_Nov_16_1219,trial,2,52,left,incongruent,incongruent,g,Feedback,TRUE,g,TRUE,551.7217999440618,NA
Feedback,1,1,20,f,2021.2.3,2021_Nov_16_1219,trial,2,53,right,incongruent,congruent,n,Feedback,TRUE,n,TRUE,503.51580005371966,NA
Feedback,1,1,20,f,2021.2.3,2021_Nov_16_1219,trial,2,54,left,congruent,congruent,g,Feedback,TRUE,g,TRUE,631.2612000037914,NA
Feedback,1,1,20,f,2021.2.3,2021_Nov_16_1219,trial,2,55,right,congruent,incongruent,n,Feedback,TRUE,n,TRUE,518.9807000569999,NA
Feedback,1,1,20,f,2021.2.3,2021_Nov_16_1219,trial,2,56,left,incongruent,congruent,g,Feedback,TRUE,g,TRUE,382.684700016398,NA
Feedback,1,1,20,f,2021.2.3,2021_Nov_16_1219,trial,2,57,right,congruent,congruent,n,Feedback,TRUE,n,TRUE,438.4622000507079,NA
Feedback,1,1,20,f,2021.2.3,2021_Nov_16_1219,trial,2,58,left,congruent,congruent,f,Feedback,TRUE,f,TRUE,486.1246000509709,NA
Feedback,1,1,20,f,2021.2.3,2021_Nov_16_1219,trial,2,59,right,congruent,incongruent,j,Feedback,TRUE,j,TRUE,493.770900007803,NA
Feedback,1,1,20,f,2021.2.3,2021_Nov_16_1219,trial,2,60,left,incongruent,congruent,g,Feedback,TRUE,g,TRUE,421.68800003128104,NA
Feedback,1,1,20,f,2021.2.3,2021_Nov_16_1219,trial,2,61,right,congruent,congruent,j,Feedback,TRUE,j,TRUE,397.6717000477945,NA
Feedback,1,1,20,f,2021.2.3,2021_Nov_16_1219,trial,2,62,left,congruent,congruent,g,Feedback,TRUE,g,TRUE,349.0860000019893,NA
Feedback,1,1,20,f,2021.2.3,2021_Nov_16_1219,trial,2,63,right,congruent,incongruent,j,Feedback,TRUE,n,FALSE,356.98560008313507,NA
Feedback,1,1,20,f,2021.2.3,2021_Nov_16_1219,trial,2,64,left,incongruent,congruent,g,Feedback,TRUE,g,TRUE,420.8664000034332,NA
Feedback,1,1,20,f,2021.2.3,2021_Nov_16_1219,trial,2,65,right,congruent,congruent,n,Feedback,TRUE,n,TRUE,508.3272000192667,NA
Feedback,1,1,20,f,2021.2.3,2021_Nov_16_1219,trial,2,66,left,congruent,incongruent,g,Feedback,TRUE,g,TRUE,508.0567999975756,NA
Feedback,1,1,20,f,2021.2.3,2021_Nov_16_1219,trial,2,67,right,incongruent,incongruent,j,Feedback,TRUE,j,TRUE,531.8028999608939,NA
Feedback,1,1,20,f,2021.2.3,2021_Nov_16_1219,trial,2,68,left,incongruent,congruent,g,Feedback,TRUE,g,TRUE,443.5358999762684,NA
Feedback,1,1,20,f,2021.2.3,2021_Nov_16_1219,trial,2,69,right,congruent,incongruent,n,Feedback,TRUE,n,TRUE,443.24000005144626,NA
Feedback,1,1,20,f,2021.2.3,2021_Nov_16_1219,trial,2,70,left,incongruent,incongruent,f,Feedback,TRUE,f,TRUE,491.0467999870889,NA
Feedback,1,1,20,f,2021.2.3,2021_Nov_16_1219,trial,2,71,right,incongruent,congruent,j,Feedback,TRUE,j,TRUE,514.6851000608876,NA
Feedback,1,1,20,f,2021.2.3,2021_Nov_16_1219,trial,2,72,left,congruent,incongruent,g,Feedback,TRUE,g,TRUE,482.4829999706708,NA
Feedback,1,1,20,f,2021.2.3,2021_Nov_16_1219,trial,2,73,right,incongruent,congruent,j,Feedback,TRUE,j,TRUE,418.0895999888887,NA
Feedback,1,1,20,f,2021.2.3,2021_Nov_16_1219,trial,2,74,left,congruent,incongruent,g,Feedback,TRUE,f,FALSE,425.9396000416018,NA
Feedback,1,1,20,f,2021.2.3,2021_Nov_16_1219,trial,2,75,right,incongruent,incongruent,n,Feedback,TRUE,n,TRUE,521.7166999937035,NA
Feedback,1,1,20,f,2021.2.3,2021_Nov_16_1219,trial,2,76,left,incongruent,incongruent,f,Feedback,TRUE,f,TRUE,513.115200039465,NA
Feedback,1,1,20,f,2021.2.3,2021_Nov_16_1219,trial,2,77,right,incongruent,incongruent,n,Feedback,TRUE,n,TRUE,705.1258000428788,NA
Feedback,1,1,20,f,2021.2.3,2021_Nov_16_1219,trial,2,78,left,incongruent,congruent,f,Feedback,TRUE,f,TRUE,616.8317000265233,NA
Feedback,1,1,20,f,2021.2.3,2021_Nov_16_1219,trial,2,79,right,congruent,congruent,n,Feedback,TRUE,n,TRUE,568.6294000479393,NA
Feedback,1,1,20,f,2021.2.3,2021_Nov_16_1219,trial,2,80,left,congruent,incongruent,f,Feedback,TRUE,f,TRUE,600.3518999787045,NA
Feedback,1,1,20,f,2021.2.3,2021_Nov_16_1219,trial,2,81,right,incongruent,congruent,n,Feedback,TRUE,n,TRUE,432.0379000273533,NA
Feedback,1,1,20,f,2021.2.3,2021_Nov_16_1219,trial,2,82,left,congruent,incongruent,f,Feedback,TRUE,f,TRUE,663.6440999573097,NA
Feedback,1,1,20,f,2021.2.3,2021_Nov_16_1219,trial,2,83,right,incongruent,congruent,n,Feedback,TRUE,n,TRUE,503.4138000337407,NA
Feedback,1,1,20,f,2021.2.3,2021_Nov_16_1219,trial,2,84,left,congruent,congruent,g,Feedback,TRUE,g,TRUE,398.99229997536145,NA
Feedback,1,1,20,f,2021.2.3,2021_Nov_16_1219,trial,2,85,right,congruent,incongruent,j,Feedback,TRUE,n,FALSE,446.87589997192845,NA
Feedback,1,1,20,f,2021.2.3,2021_Nov_16_1219,trial,2,86,left,incongruent,incongruent,g,Feedback,TRUE,g,TRUE,742.7564000245184,NA
Feedback,1,1,20,f,2021.2.3,2021_Nov_16_1219,trial,2,87,right,incongruent,incongruent,n,Feedback,TRUE,n,TRUE,510.3798000491224,NA
Feedback,1,1,20,f,2021.2.3,2021_Nov_16_1219,trial,2,88,left,incongruent,congruent,g,Feedback,TRUE,g,TRUE,470.1738999574443,NA
Feedback,1,1,20,f,2021.2.3,2021_Nov_16_1219,trial,2,89,right,congruent,incongruent,n,Feedback,TRUE,n,TRUE,445.88369998382404,NA
Feedback,1,1,20,f,2021.2.3,2021_Nov_16_1219,trial,2,90,left,incongruent,congruent,f,Feedback,TRUE,f,TRUE,533.7006000336262,NA
Feedback,1,1,20,f,2021.2.3,2021_Nov_16_1219,trial,2,91,right,congruent,congruent,n,Feedback,TRUE,n,TRUE,437.4136999831537,NA
Feedback,1,1,20,f,2021.2.3,2021_Nov_16_1219,trial,2,92,left,congruent,congruent,f,Feedback,TRUE,f,TRUE,509.1295999591239,NA
Feedback,1,1,20,f,2021.2.3,2021_Nov_16_1219,trial,2,93,right,congruent,congruent,n,Feedback,TRUE,n,TRUE,412.5745999626813,NA
Feedback,1,1,20,f,2021.2.3,2021_Nov_16_1219,trial,2,94,left,congruent,congruent,f,Feedback,TRUE,f,TRUE,492.6586999790745,NA
Feedback,1,1,20,f,2021.2.3,2021_Nov_16_1219,trial,2,95,right,congruent,incongruent,j,Feedback,TRUE,j,TRUE,580.2586999488994,NA
Feedback,1,1,20,f,2021.2.3,2021_Nov_16_1219,trial,2,96,left,incongruent,congruent,f,Feedback,TRUE,f,TRUE,484.09699997864664,NA
Feedback,1,1,20,f,2021.2.3,2021_Nov_16_1219,trial,2,97,right,congruent,congruent,j,Feedback,TRUE,j,TRUE,515.8212000387721,NA
Feedback,1,1,20,f,2021.2.3,2021_Nov_16_1219,trial,3,1,right,congruent,congruent,j,Feedback,TRUE,j,TRUE,468.5598000069149,NA
Feedback,1,1,20,f,2021.2.3,2021_Nov_16_1219,trial,3,2,left,congruent,incongruent,f,Feedback,TRUE,f,TRUE,1012.1025000116786,NA
Feedback,1,1,20,f,2021.2.3,2021_Nov_16_1219,trial,3,3,right,incongruent,incongruent,n,Feedback,TRUE,n,TRUE,596.0242000292055,NA
Feedback,1,1,20,f,2021.2.3,2021_Nov_16_1219,trial,3,4,left,incongruent,congruent,f,Feedback,TRUE,f,TRUE,395.78750001965113,NA
Feedback,1,1,20,f,2021.2.3,2021_Nov_16_1219,trial,3,5,right,congruent,congruent,j,Feedback,TRUE,j,TRUE,403.37160002673045,NA
Feedback,1,1,20,f,2021.2.3,2021_Nov_16_1219,trial,3,6,left,congruent,incongruent,f,Feedback,TRUE,f,TRUE,483.2399000297303,NA
Feedback,1,1,20,f,2021.2.3,2021_Nov_16_1219,trial,3,7,right,incongruent,incongruent,j,Feedback,TRUE,j,TRUE,659.103600017261,NA
Feedback,1,1,20,f,2021.2.3,2021_Nov_16_1219,trial,3,8,left,incongruent,congruent,f,Feedback,TRUE,f,TRUE,378.67689999984555,NA
Feedback,1,1,20,f,2021.2.3,2021_Nov_16_1219,trial,3,9,right,congruent,congruent,n,Feedback,TRUE,n,TRUE,514.5424000220373,NA
Feedback,1,1,20,f,2021.2.3,2021_Nov_16_1219,trial,3,10,left,congruent,congruent,f,Feedback,TRUE,f,TRUE,498.0720999883488,NA
Feedback,1,1,20,f,2021.2.3,2021_Nov_16_1219,trial,3,11,right,congruent,congruent,n,Feedback,TRUE,n,TRUE,377.77389999246225,NA
Feedback,1,1,20,f,2021.2.3,2021_Nov_16_1219,trial,3,12,left,congruent,incongruent,f,Feedback,TRUE,g,FALSE,441.597199998796,NA
Feedback,1,1,20,f,2021.2.3,2021_Nov_16_1219,trial,3,13,right,incongruent,congruent,j,Feedback,TRUE,j,TRUE,369.2509999964386,NA
Feedback,1,1,20,f,2021.2.3,2021_Nov_16_1219,trial,3,14,left,congruent,congruent,g,Feedback,TRUE,g,TRUE,441.15070003317646,NA
Feedback,1,1,20,f,2021.2.3,2021_Nov_16_1219,trial,3,15,right,congruent,congruent,n,Feedback,TRUE,n,TRUE,464.85889999894425,NA
Feedback,1,1,20,f,2021.2.3,2021_Nov_16_1219,trial,3,16,left,congruent,congruent,g,Feedback,TRUE,g,TRUE,384.44049993995577,NA
Feedback,1,1,20,f,2021.2.3,2021_Nov_16_1219,trial,3,17,right,congruent,congruent,n,Feedback,TRUE,n,TRUE,408.30740006640553,NA
Feedback,1,1,20,f,2021.2.3,2021_Nov_16_1219,trial,3,18,left,congruent,congruent,g,Feedback,TRUE,g,TRUE,456.0165000730194,NA
Feedback,1,1,20,f,2021.2.3,2021_Nov_16_1219,trial,3,19,right,congruent,incongruent,n,Feedback,TRUE,n,TRUE,431.67739995988086,NA
Feedback,1,1,20,f,2021.2.3,2021_Nov_16_1219,trial,3,20,left,incongruent,congruent,g,Feedback,TRUE,g,TRUE,399.49970005545765,NA
Feedback,1,1,20,f,2021.2.3,2021_Nov_16_1219,trial,3,21,right,congruent,congruent,n,Feedback,TRUE,n,TRUE,367.0622000354342,NA
Feedback,1,1,20,f,2021.2.3,2021_Nov_16_1219,trial,3,22,left,congruent,congruent,g,Feedback,TRUE,g,TRUE,678.7551000597889,NA
Feedback,1,1,20,f,2021.2.3,2021_Nov_16_1219,trial,3,23,right,congruent,congruent,j,Feedback,TRUE,n,FALSE,518.6929000192324,NA
Feedback,1,1,20,f,2021.2.3,2021_Nov_16_1219,trial,3,24,left,congruent,incongruent,f,Feedback,TRUE,f,TRUE,502.43619998218514,NA
Feedback,1,1,20,f,2021.2.3,2021_Nov_16_1219,trial,3,25,right,incongruent,congruent,n,Feedback,TRUE,n,TRUE,502.14249995769933,NA
Feedback,1,1,20,f,2021.2.3,2021_Nov_16_1219,trial,3,26,left,congruent,congruent,f,Feedback,TRUE,f,TRUE,813.7804999714717,NA
Feedback,1,1,20,f,2021.2.3,2021_Nov_16_1219,trial,3,27,right,congruent,congruent,n,Feedback,TRUE,n,TRUE,373.60900006024167,NA
Feedback,1,1,20,f,2021.2.3,2021_Nov_16_1219,trial,3,28,left,congruent,incongruent,g,Feedback,TRUE,g,TRUE,709.3190999585206,NA
Feedback,1,1,20,f,2021.2.3,2021_Nov_16_1219,trial,3,29,right,incongruent,incongruent,n,Feedback,TRUE,n,TRUE,501.0781000019049,NA
Feedback,1,1,20,f,2021.2.3,2021_Nov_16_1219,trial,3,30,left,incongruent,incongruent,g,Feedback,TRUE,g,TRUE,588.8351999456063,NA
Feedback,1,1,20,f,2021.2.3,2021_Nov_16_1219,trial,3,31,right,incongruent,incongruent,j,Feedback,TRUE,j,TRUE,572.6996999583209,NA
Feedback,1,1,20,f,2021.2.3,2021_Nov_16_1219,trial,3,32,left,incongruent,congruent,g,Feedback,TRUE,g,TRUE,460.2822000160811,NA
Feedback,1,1,20,f,2021.2.3,2021_Nov_16_1219,trial,3,33,right,congruent,incongruent,j,Feedback,TRUE,n,FALSE,427.87710000993684,NA
Feedback,1,1,20,f,2021.2.3,2021_Nov_16_1219,trial,3,34,left,incongruent,congruent,g,Feedback,TRUE,g,TRUE,387.8229000256397,NA
Feedback,1,1,20,f,2021.2.3,2021_Nov_16_1219,trial,3,35,right,congruent,congruent,j,Feedback,TRUE,j,TRUE,419.4607000099495,NA
Feedback,1,1,20,f,2021.2.3,2021_Nov_16_1219,trial,3,36,left,congruent,congruent,f,Feedback,TRUE,f,TRUE,411.07249999186,NA
Feedback,1,1,20,f,2021.2.3,2021_Nov_16_1219,trial,3,37,right,congruent,incongruent,n,Feedback,TRUE,n,TRUE,562.7762000658549,NA
Feedback,1,1,20,f,2021.2.3,2021_Nov_16_1219,trial,3,38,left,incongruent,incongruent,f,Feedback,TRUE,f,TRUE,546.5398000087589,NA
Feedback,1,1,20,f,2021.2.3,2021_Nov_16_1219,trial,3,39,right,incongruent,congruent,j,Feedback,TRUE,j,TRUE,530.2902000839822,NA
Feedback,1,1,20,f,2021.2.3,2021_Nov_16_1219,trial,3,40,left,congruent,congruent,f,Feedback,TRUE,f,TRUE,426.16610002005496,NA
Feedback,1,1,20,f,2021.2.3,2021_Nov_16_1219,trial,3,41,right,congruent,congruent,j,Feedback,TRUE,j,TRUE,377.8424999909473,NA
Feedback,1,1,20,f,2021.2.3,2021_Nov_16_1219,trial,3,42,left,congruent,congruent,g,Feedback,TRUE,g,TRUE,585.5663000256754,NA
Feedback,1,1,20,f,2021.2.3,2021_Nov_16_1219,trial,3,43,right,congruent,congruent,j,Feedback,TRUE,j,TRUE,425.3488999675028,NA
Feedback,1,1,20,f,2021.2.3,2021_Nov_16_1219,trial,3,44,left,congruent,congruent,g,Feedback,TRUE,g,TRUE,441.12000009045005,NA
Feedback,1,1,20,f,2021.2.3,2021_Nov_16_1219,trial,3,45,right,congruent,incongruent,j,Feedback,TRUE,n,FALSE,504.84930007951334,NA
Feedback,1,1,20,f,2021.2.3,2021_Nov_16_1219,trial,3,46,left,incongruent,congruent,g,Feedback,TRUE,g,TRUE,432.5535999960266,NA
Feedback,1,1,20,f,2021.2.3,2021_Nov_16_1219,trial,3,47,right,congruent,incongruent,j,Feedback,TRUE,j,TRUE,448.29330005450174,NA
Feedback,1,1,20,f,2021.2.3,2021_Nov_16_1219,trial,3,48,left,incongruent,incongruent,f,Feedback,TRUE,f,TRUE,527.9709000024013,NA
Feedback,1,1,20,f,2021.2.3,2021_Nov_16_1219,trial,3,49,right,incongruent,congruent,n,Feedback,TRUE,n,TRUE,375.7193000637924,NA
Feedback,1,1,20,f,2021.2.3,2021_Nov_16_1219,trial,3,50,left,congruent,incongruent,g,Feedback,TRUE,g,TRUE,655.5685999337584,NA
Feedback,1,1,20,f,2021.2.3,2021_Nov_16_1219,trial,3,51,right,incongruent,congruent,n,Feedback,TRUE,n,TRUE,431.07059999601915,NA
Feedback,1,1,20,f,2021.2.3,2021_Nov_16_1219,trial,3,52,left,congruent,congruent,f,Feedback,TRUE,f,TRUE,534.8145000752993,NA
Feedback,1,1,20,f,2021.2.3,2021_Nov_16_1219,trial,3,53,right,congruent,incongruent,j,Feedback,TRUE,j,TRUE,470.8477000240234,NA
Feedback,1,1,20,f,2021.2.3,2021_Nov_16_1219,trial,3,54,left,incongruent,incongruent,f,Feedback,TRUE,f,TRUE,670.4541000071913,NA
Feedback,1,1,20,f,2021.2.3,2021_Nov_16_1219,trial,3,55,right,incongruent,congruent,j,Feedback,TRUE,j,TRUE,414.5146000082607,NA
Feedback,1,1,20,f,2021.2.3,2021_Nov_16_1219,trial,3,56,left,congruent,congruent,f,Feedback,TRUE,f,TRUE,437.8842000151053,NA
Feedback,1,1,20,f,2021.2.3,2021_Nov_16_1219,trial,3,57,right,congruent,incongruent,j,Feedback,TRUE,n,FALSE,413.4660000563597,NA
Feedback,1,1,20,f,2021.2.3,2021_Nov_16_1219,trial,3,58,left,incongruent,incongruent,g,Feedback,TRUE,g,TRUE,501.3329000212252,NA
Feedback,1,1,20,f,2021.2.3,2021_Nov_16_1219,trial,3,59,right,incongruent,incongruent,n,Feedback,TRUE,n,TRUE,525.1009999774396,NA
Feedback,1,1,20,f,2021.2.3,2021_Nov_16_1219,trial,3,60,left,incongruent,incongruent,g,Feedback,TRUE,g,TRUE,660.8469000784683,NA
Feedback,1,1,20,f,2021.2.3,2021_Nov_16_1219,trial,3,61,right,incongruent,incongruent,j,Feedback,TRUE,j,TRUE,540.5606999993324,NA
Feedback,1,1,20,f,2021.2.3,2021_Nov_16_1219,trial,3,62,left,incongruent,incongruent,f,Feedback,TRUE,f,TRUE,484.3620000756348,NA
Feedback,1,1,20,f,2021.2.3,2021_Nov_16_1219,trial,3,63,right,incongruent,incongruent,n,Feedback,TRUE,n,TRUE,524.08269996522,NA
Feedback,1,1,20,f,2021.2.3,2021_Nov_16_1219,trial,3,64,left,incongruent,congruent,f,Feedback,TRUE,f,TRUE,579.5313999988139,NA
Feedback,1,1,20,f,2021.2.3,2021_Nov_16_1219,trial,3,65,right,congruent,incongruent,n,Feedback,TRUE,n,TRUE,539.5845000748523,NA
Feedback,1,1,20,f,2021.2.3,2021_Nov_16_1219,trial,3,66,left,incongruent,congruent,g,Feedback,TRUE,g,TRUE,627.1561000030488,NA
Feedback,1,1,20,f,2021.2.3,2021_Nov_16_1219,trial,3,67,right,congruent,incongruent,n,Feedback,TRUE,n,TRUE,522.8952000616121,NA
Feedback,1,1,20,f,2021.2.3,2021_Nov_16_1219,trial,3,68,left,incongruent,incongruent,g,Feedback,TRUE,g,TRUE,514.6117000258528,NA
Feedback,1,1,20,f,2021.2.3,2021_Nov_16_1219,trial,3,69,right,incongruent,congruent,n,Feedback,TRUE,n,TRUE,466.44200006267033,NA
Feedback,1,1,20,f,2021.2.3,2021_Nov_16_1219,trial,3,70,left,congruent,incongruent,f,Feedback,TRUE,f,TRUE,514.4795999513008,NA
Feedback,1,1,20,f,2021.2.3,2021_Nov_16_1219,trial,3,71,right,incongruent,incongruent,j,Feedback,TRUE,j,TRUE,489.7823000210335,NA
Feedback,1,1,20,f,2021.2.3,2021_Nov_16_1219,trial,3,72,left,incongruent,congruent,f,Feedback,TRUE,f,TRUE,473.6473999801092,NA
Feedback,1,1,20,f,2021.2.3,2021_Nov_16_1219,trial,3,73,right,congruent,congruent,j,Feedback,TRUE,j,TRUE,425.35759997554123,NA
Feedback,1,1,20,f,2021.2.3,2021_Nov_16_1219,trial,3,74,left,congruent,incongruent,g,Feedback,TRUE,f,FALSE,465.02679999684915,NA
Feedback,1,1,20,f,2021.2.3,2021_Nov_16_1219,trial,3,75,right,incongruent,incongruent,n,Feedback,TRUE,n,TRUE,544.5324000320397,NA
Feedback,1,1,20,f,2021.2.3,2021_Nov_16_1219,trial,3,76,left,incongruent,congruent,f,Feedback,TRUE,f,TRUE,432.5812000315634,NA
Feedback,1,1,20,f,2021.2.3,2021_Nov_16_1219,trial,3,77,right,congruent,incongruent,j,Feedback,TRUE,j,TRUE,416.2986999726854,NA
Feedback,1,1,20,f,2021.2.3,2021_Nov_16_1219,trial,3,78,left,incongruent,congruent,f,Feedback,TRUE,f,TRUE,455.97340003587306,NA
Feedback,1,1,20,f,2021.2.3,2021_Nov_16_1219,trial,3,79,right,congruent,incongruent,n,Feedback,TRUE,n,TRUE,479.5325000304731,NA
Feedback,1,1,20,f,2021.2.3,2021_Nov_16_1219,trial,3,80,left,incongruent,incongruent,f,Feedback,TRUE,f,TRUE,631.418599979952,NA
Feedback,1,1,20,f,2021.2.3,2021_Nov_16_1219,trial,3,81,right,incongruent,congruent,n,Feedback,TRUE,n,TRUE,623.2233999762684,NA
Feedback,1,1,20,f,2021.2.3,2021_Nov_16_1219,trial,3,82,left,congruent,incongruent,g,Feedback,TRUE,g,TRUE,830.9464000049045,NA
Feedback,1,1,20,f,2021.2.3,2021_Nov_16_1219,trial,3,83,right,incongruent,congruent,j,Feedback,TRUE,j,TRUE,438.6040000244975,NA
Feedback,1,1,20,f,2021.2.3,2021_Nov_16_1219,trial,3,84,left,congruent,incongruent,g,Feedback,TRUE,g,TRUE,502.3722000187265,NA
Feedback,1,1,20,f,2021.2.3,2021_Nov_16_1219,trial,3,85,right,incongruent,congruent,j,Feedback,TRUE,j,TRUE,398.1979000382123,NA
Feedback,1,1,20,f,2021.2.3,2021_Nov_16_1219,trial,3,86,left,congruent,incongruent,g,Feedback,TRUE,g,TRUE,589.7932999650945,NA
Feedback,1,1,20,f,2021.2.3,2021_Nov_16_1219,trial,3,87,right,incongruent,congruent,n,Feedback,TRUE,j,FALSE,381.586600036826,NA
Feedback,1,1,20,f,2021.2.3,2021_Nov_16_1219,trial,3,88,left,congruent,incongruent,f,Feedback,TRUE,f,TRUE,541.3899999693967,NA
Feedback,1,1,20,f,2021.2.3,2021_Nov_16_1219,trial,3,89,right,incongruent,incongruent,n,Feedback,TRUE,n,TRUE,581.2360000563783,NA
Feedback,1,1,20,f,2021.2.3,2021_Nov_16_1219,trial,3,90,left,incongruent,congruent,g,Feedback,TRUE,g,TRUE,460.82870004465804,NA
Feedback,1,1,20,f,2021.2.3,2021_Nov_16_1219,trial,3,91,right,congruent,incongruent,n,Feedback,TRUE,n,TRUE,524.5273000327868,NA
Feedback,1,1,20,f,2021.2.3,2021_Nov_16_1219,trial,3,92,left,incongruent,incongruent,f,Feedback,TRUE,f,TRUE,468.1410000193864,NA
Feedback,1,1,20,f,2021.2.3,2021_Nov_16_1219,trial,3,93,right,incongruent,incongruent,j,Feedback,TRUE,j,TRUE,467.94430003501475,NA
Feedback,1,1,20,f,2021.2.3,2021_Nov_16_1219,trial,3,94,left,incongruent,incongruent,g,Feedback,TRUE,g,TRUE,539.7770000272433,NA
Feedback,1,1,20,f,2021.2.3,2021_Nov_16_1219,trial,3,95,right,incongruent,incongruent,j,Feedback,TRUE,j,TRUE,579.342299955897,NA
Feedback,1,1,20,f,2021.2.3,2021_Nov_16_1219,trial,3,96,left,incongruent,incongruent,g,Feedback,TRUE,g,TRUE,531.1306999647059,NA
Feedback,1,1,20,f,2021.2.3,2021_Nov_16_1219,trial,3,97,right,incongruent,congruent,j,Feedback,TRUE,j,TRUE,451.0766000021249,NA
Feedback,1,1,20,f,2021.2.3,2021_Nov_16_1219,trial,4,1,right,congruent,congruent,j,Feedback,TRUE,j,TRUE,408.4821000578813,NA
Feedback,1,1,20,f,2021.2.3,2021_Nov_16_1219,trial,4,2,left,congruent,incongruent,f,Feedback,TRUE,f,TRUE,600.2888000220992,NA
Feedback,1,1,20,f,2021.2.3,2021_Nov_16_1219,trial,4,3,right,incongruent,congruent,n,Feedback,TRUE,n,TRUE,543.8076999853365,NA
Feedback,1,1,20,f,2021.2.3,2021_Nov_16_1219,trial,4,4,left,congruent,congruent,f,Feedback,TRUE,f,TRUE,759.6022000070659,NA
Feedback,1,1,20,f,2021.2.3,2021_Nov_16_1219,trial,4,5,right,congruent,incongruent,n,Feedback,TRUE,n,TRUE,519.2281000199725,NA
Feedback,1,1,20,f,2021.2.3,2021_Nov_16_1219,trial,4,6,left,incongruent,congruent,f,Feedback,TRUE,f,TRUE,399.19599995482713,NA
Feedback,1,1,20,f,2021.2.3,2021_Nov_16_1219,trial,4,7,right,congruent,incongruent,n,Feedback,TRUE,n,TRUE,534.7351999953389,NA
Feedback,1,1,20,f,2021.2.3,2021_Nov_16_1219,trial,4,8,left,incongruent,congruent,f,Feedback,TRUE,f,TRUE,422.69279999891273,NA
Feedback,1,1,20,f,2021.2.3,2021_Nov_16_1219,trial,4,9,right,congruent,congruent,n,Feedback,TRUE,n,TRUE,470.3358000260778,NA
Feedback,1,1,20,f,2021.2.3,2021_Nov_16_1219,trial,4,10,left,congruent,incongruent,f,Feedback,TRUE,f,TRUE,782.0327999652366,NA
Feedback,1,1,20,f,2021.2.3,2021_Nov_16_1219,trial,4,11,right,incongruent,congruent,j,Feedback,TRUE,j,TRUE,573.7964999862015,NA
Feedback,1,1,20,f,2021.2.3,2021_Nov_16_1219,trial,4,12,left,congruent,incongruent,f,Feedback,TRUE,f,TRUE,525.6858000648208,NA
Feedback,1,1,20,f,2021.2.3,2021_Nov_16_1219,trial,4,13,right,incongruent,congruent,j,Feedback,TRUE,j,TRUE,461.17650001542665,NA
Feedback,1,1,20,f,2021.2.3,2021_Nov_16_1219,trial,4,14,left,congruent,congruent,g,Feedback,TRUE,g,TRUE,493.0158000206577,NA
Feedback,1,1,20,f,2021.2.3,2021_Nov_16_1219,trial,4,15,right,congruent,congruent,n,Feedback,TRUE,n,TRUE,372.63800005894154,NA
Feedback,1,1,20,f,2021.2.3,2021_Nov_16_1219,trial,4,16,left,congruent,incongruent,g,Feedback,TRUE,g,TRUE,556.5185000887141,NA
Feedback,1,1,20,f,2021.2.3,2021_Nov_16_1219,trial,4,17,right,incongruent,incongruent,j,Feedback,TRUE,j,TRUE,564.5095000509175,NA
Feedback,1,1,20,f,2021.2.3,2021_Nov_16_1219,trial,4,18,left,incongruent,congruent,f,Feedback,TRUE,f,TRUE,659.9401999264956,NA
Feedback,1,1,20,f,2021.2.3,2021_Nov_16_1219,trial,4,19,right,congruent,incongruent,n,Feedback,TRUE,n,TRUE,483.6966000730174,NA
Feedback,1,1,20,f,2021.2.3,2021_Nov_16_1219,trial,4,20,left,incongruent,incongruent,g,Feedback,TRUE,g,TRUE,587.5195000553504,NA
Feedback,1,1,20,f,2021.2.3,2021_Nov_16_1219,trial,4,21,right,incongruent,incongruent,n,Feedback,TRUE,n,TRUE,491.1065999767743,NA
Feedback,1,1,20,f,2021.2.3,2021_Nov_16_1219,trial,4,22,left,incongruent,congruent,f,Feedback,TRUE,f,TRUE,394.9585000518714,NA
Feedback,1,1,20,f,2021.2.3,2021_Nov_16_1219,trial,4,23,right,congruent,incongruent,j,Feedback,TRUE,j,TRUE,386.46450004307553,NA
Feedback,1,1,20,f,2021.2.3,2021_Nov_16_1219,trial,4,24,left,incongruent,congruent,g,Feedback,TRUE,g,TRUE,434.32530004065484,NA
Feedback,1,1,20,f,2021.2.3,2021_Nov_16_1219,trial,4,25,right,congruent,congruent,j,Feedback,TRUE,j,TRUE,362.04199999338016,NA
Feedback,1,1,20,f,2021.2.3,2021_Nov_16_1219,trial,4,26,left,congruent,incongruent,g,Feedback,TRUE,g,TRUE,529.6188000356779,NA
Feedback,1,1,20,f,2021.2.3,2021_Nov_16_1219,trial,4,27,right,incongruent,congruent,n,Feedback,TRUE,n,TRUE,401.452300022356,NA
Feedback,1,1,20,f,2021.2.3,2021_Nov_16_1219,trial,4,28,left,congruent,incongruent,g,Feedback,TRUE,f,FALSE,465.2244999888353,NA
Feedback,1,1,20,f,2021.2.3,2021_Nov_16_1219,trial,4,29,right,incongruent,incongruent,j,Feedback,TRUE,j,TRUE,425.0228000455536,NA
Feedback,1,1,20,f,2021.2.3,2021_Nov_16_1219,trial,4,30,left,incongruent,incongruent,f,Feedback,TRUE,f,TRUE,504.7990999883041,NA
Feedback,1,1,20,f,2021.2.3,2021_Nov_16_1219,trial,4,31,right,incongruent,congruent,n,Feedback,TRUE,n,TRUE,464.53830000245944,NA
Feedback,1,1,20,f,2021.2.3,2021_Nov_16_1219,trial,4,32,left,congruent,congruent,f,Feedback,TRUE,f,TRUE,464.5518999896012,NA
Feedback,1,1,20,f,2021.2.3,2021_Nov_16_1219,trial,4,33,right,congruent,incongruent,j,Feedback,TRUE,j,TRUE,479.76090002339333,NA
Feedback,1,1,20,f,2021.2.3,2021_Nov_16_1219,trial,4,34,left,incongruent,congruent,g,Feedback,TRUE,g,TRUE,407.6429000706412,NA
Feedback,1,1,20,f,2021.2.3,2021_Nov_16_1219,trial,4,35,right,congruent,congruent,n,Feedback,TRUE,n,TRUE,415.29350011842325,NA
Feedback,1,1,20,f,2021.2.3,2021_Nov_16_1219,trial,4,36,left,congruent,incongruent,f,Feedback,TRUE,f,TRUE,519.128899963107,NA
Feedback,1,1,20,f,2021.2.3,2021_Nov_16_1219,trial,4,37,right,incongruent,incongruent,n,Feedback,TRUE,n,TRUE,478.79590006778017,NA
Feedback,1,1,20,f,2021.2.3,2021_Nov_16_1219,trial,4,38,left,incongruent,incongruent,f,Feedback,TRUE,f,TRUE,550.586600031238,NA
Feedback,1,1,20,f,2021.2.3,2021_Nov_16_1219,trial,4,39,right,incongruent,congruent,j,Feedback,TRUE,j,TRUE,374.34350000694394,NA
Feedback,1,1,20,f,2021.2.3,2021_Nov_16_1219,trial,4,40,left,congruent,incongruent,f,Feedback,TRUE,f,TRUE,726.0928999749012,NA
Feedback,1,1,20,f,2021.2.3,2021_Nov_16_1219,trial,4,41,right,incongruent,incongruent,n,Feedback,TRUE,n,TRUE,557.8309999546036,NA
Feedback,1,1,20,f,2021.2.3,2021_Nov_16_1219,trial,4,42,left,incongruent,congruent,g,Feedback,FALSE,NA,NA,NA,NA
Feedback,1,1,20,f,2021.2.3,2021_Nov_16_1219,trial,4,43,right,congruent,incongruent,j,Feedback,TRUE,j,TRUE,477.15970000717766,NA
Feedback,1,1,20,f,2021.2.3,2021_Nov_16_1219,trial,4,44,left,incongruent,incongruent,f,Feedback,TRUE,f,TRUE,612.9000000655651,NA
Feedback,1,1,20,f,2021.2.3,2021_Nov_16_1219,trial,4,45,right,incongruent,congruent,n,Feedback,TRUE,n,TRUE,381.08369999099523,NA
Feedback,1,1,20,f,2021.2.3,2021_Nov_16_1219,trial,4,46,left,congruent,congruent,f,Feedback,TRUE,f,TRUE,404.48660001857183,NA
Feedback,1,1,20,f,2021.2.3,2021_Nov_16_1219,trial,4,47,right,congruent,congruent,n,Feedback,TRUE,n,TRUE,348.1627999572081,NA
Feedback,1,1,20,f,2021.2.3,2021_Nov_16_1219,trial,4,48,left,congruent,incongruent,f,Feedback,TRUE,f,TRUE,539.9151000310667,NA
Feedback,1,1,20,f,2021.2.3,2021_Nov_16_1219,trial,4,49,right,incongruent,incongruent,n,Feedback,TRUE,n,TRUE,451.55369996791705,NA
Feedback,1,1,20,f,2021.2.3,2021_Nov_16_1219,trial,4,50,left,incongruent,incongruent,f,Feedback,TRUE,f,TRUE,507.4194999760948,NA
Feedback,1,1,20,f,2021.2.3,2021_Nov_16_1219,trial,4,51,right,incongruent,incongruent,j,Feedback,TRUE,j,TRUE,443.17319995025173,NA
Feedback,1,1,20,f,2021.2.3,2021_Nov_16_1219,trial,4,52,left,incongruent,incongruent,f,Feedback,TRUE,f,TRUE,426.8306999583731,NA
Feedback,1,1,20,f,2021.2.3,2021_Nov_16_1219,trial,4,53,right,incongruent,incongruent,j,Feedback,TRUE,n,FALSE,410.55620001861826,NA
Feedback,1,1,20,f,2021.2.3,2021_Nov_16_1219,trial,4,54,left,incongruent,congruent,f,Feedback,TRUE,f,TRUE,458.3020000718534,NA
Feedback,1,1,20,f,2021.2.3,2021_Nov_16_1219,trial,4,55,right,congruent,congruent,j,Feedback,TRUE,j,TRUE,361.7736999876797,NA
Feedback,1,1,20,f,2021.2.3,2021_Nov_16_1219,trial,4,56,left,congruent,congruent,g,Feedback,TRUE,g,TRUE,441.7762999655681,NA
Feedback,1,1,20,f,2021.2.3,2021_Nov_16_1219,trial,4,57,right,congruent,incongruent,n,Feedback,TRUE,n,TRUE,481.54589999467134,NA
Feedback,1,1,20,f,2021.2.3,2021_Nov_16_1219,trial,4,58,left,incongruent,incongruent,g,Feedback,TRUE,f,FALSE,449.2578000645158,NA
Feedback,1,1,20,f,2021.2.3,2021_Nov_16_1219,trial,4,59,right,incongruent,incongruent,j,Feedback,TRUE,j,TRUE,441.042500024196,NA
Feedback,1,1,20,f,2021.2.3,2021_Nov_16_1219,trial,4,60,left,incongruent,congruent,f,Feedback,TRUE,f,TRUE,448.7402000231666,NA
Feedback,1,1,20,f,2021.2.3,2021_Nov_16_1219,trial,4,61,right,congruent,congruent,n,Feedback,TRUE,n,TRUE,440.4538000235332,NA
Feedback,1,1,20,f,2021.2.3,2021_Nov_16_1219,trial,4,62,left,congruent,incongruent,g,Feedback,TRUE,f,FALSE,432.09690001094714,NA
Feedback,1,1,20,f,2021.2.3,2021_Nov_16_1219,trial,4,63,right,incongruent,incongruent,n,Feedback,TRUE,n,TRUE,439.84990008175373,NA
Feedback,1,1,20,f,2021.2.3,2021_Nov_16_1219,trial,4,64,left,incongruent,incongruent,g,Feedback,TRUE,g,TRUE,551.566600042861,NA
Feedback,1,1,20,f,2021.2.3,2021_Nov_16_1219,trial,4,65,right,incongruent,congruent,j,Feedback,TRUE,j,TRUE,503.2806999515742,NA
Feedback,1,1,20,f,2021.2.3,2021_Nov_16_1219,trial,4,66,left,congruent,incongruent,g,Feedback,TRUE,g,TRUE,559.1498000430875,NA
Feedback,1,1,20,f,2021.2.3,2021_Nov_16_1219,trial,4,67,right,incongruent,incongruent,n,Feedback,TRUE,n,TRUE,526.8653999664821,NA
Feedback,1,1,20,f,2021.2.3,2021_Nov_16_1219,trial,4,68,left,incongruent,incongruent,f,Feedback,TRUE,f,TRUE,694.556800066493,NA
Feedback,1,1,20,f,2021.2.3,2021_Nov_16_1219,trial,4,69,right,incongruent,incongruent,j,Feedback,TRUE,j,TRUE,486.26999999396503,NA
Feedback,1,1,20,f,2021.2.3,2021_Nov_16_1219,trial,4,70,left,incongruent,incongruent,g,Feedback,TRUE,g,TRUE,470.0769000919536,NA
Feedback,1,1,20,f,2021.2.3,2021_Nov_16_1219,trial,4,71,right,incongruent,congruent,j,Feedback,TRUE,j,TRUE,581.7400000523776,NA
Feedback,1,1,20,f,2021.2.3,2021_Nov_16_1219,trial,4,72,left,congruent,incongruent,g,Feedback,TRUE,g,TRUE,741.5482000214979,NA
Feedback,1,1,20,f,2021.2.3,2021_Nov_16_1219,trial,4,73,right,incongruent,congruent,j,Feedback,TRUE,j,TRUE,397.2336000879293,NA
Feedback,1,1,20,f,2021.2.3,2021_Nov_16_1219,trial,4,74,left,congruent,congruent,g,Feedback,TRUE,g,TRUE,524.9211000045761,NA
Feedback,1,1,20,f,2021.2.3,2021_Nov_16_1219,trial,4,75,right,congruent,incongruent,j,Feedback,TRUE,j,TRUE,524.7575999819671,NA
Feedback,1,1,20,f,2021.2.3,2021_Nov_16_1219,trial,4,76,left,incongruent,congruent,g,Feedback,TRUE,g,TRUE,356.38630005996674,NA
Feedback,1,1,20,f,2021.2.3,2021_Nov_16_1219,trial,4,77,right,congruent,incongruent,j,Feedback,TRUE,j,TRUE,460.23740008240566,NA
Feedback,1,1,20,f,2021.2.3,2021_Nov_16_1219,trial,4,78,left,incongruent,incongruent,g,Feedback,TRUE,g,TRUE,635.948400013149,NA
Feedback,1,1,20,f,2021.2.3,2021_Nov_16_1219,trial,4,79,right,incongruent,congruent,n,Feedback,TRUE,n,TRUE,419.6175000397486,NA
Feedback,1,1,20,f,2021.2.3,2021_Nov_16_1219,trial,4,80,left,congruent,congruent,g,Feedback,TRUE,g,TRUE,387.3858999577351,NA
Feedback,1,1,20,f,2021.2.3,2021_Nov_16_1219,trial,4,81,right,congruent,incongruent,n,Feedback,TRUE,n,TRUE,515.1424999930896,NA
Feedback,1,1,20,f,2021.2.3,2021_Nov_16_1219,trial,4,82,left,incongruent,congruent,g,Feedback,TRUE,g,TRUE,474.90640002069995,NA
Feedback,1,1,20,f,2021.2.3,2021_Nov_16_1219,trial,4,83,right,congruent,congruent,n,Feedback,TRUE,n,TRUE,506.51450001168996,NA
Feedback,1,1,20,f,2021.2.3,2021_Nov_16_1219,trial,4,84,left,congruent,congruent,g,Feedback,TRUE,j,FALSE,362.40650003310316,NA
Feedback,1,1,20,f,2021.2.3,2021_Nov_16_1219,trial,4,85,right,congruent,incongruent,n,Feedback,TRUE,n,TRUE,554.14819996804,NA
Feedback,1,1,20,f,2021.2.3,2021_Nov_16_1219,trial,4,86,left,incongruent,congruent,g,Feedback,TRUE,g,TRUE,497.9346999898553,NA
Feedback,1,1,20,f,2021.2.3,2021_Nov_16_1219,trial,4,87,right,congruent,congruent,j,Feedback,TRUE,j,TRUE,393.5439999913799,NA
Feedback,1,1,20,f,2021.2.3,2021_Nov_16_1219,trial,4,88,left,congruent,congruent,f,Feedback,TRUE,f,TRUE,337.2716000303626,NA
Feedback,1,1,20,f,2021.2.3,2021_Nov_16_1219,trial,4,89,right,congruent,congruent,j,Feedback,TRUE,j,TRUE,489.0572000294924,NA
Feedback,1,1,20,f,2021.2.3,2021_Nov_16_1219,trial,4,90,left,congruent,congruent,f,Feedback,TRUE,f,TRUE,440.7820000196807,NA
Feedback,1,1,20,f,2021.2.3,2021_Nov_16_1219,trial,4,91,right,congruent,incongruent,j,Feedback,TRUE,j,TRUE,528.3393000718206,NA
Feedback,1,1,20,f,2021.2.3,2021_Nov_16_1219,trial,4,92,left,incongruent,incongruent,g,Feedback,TRUE,f,FALSE,328.0432000174187,NA
Feedback,1,1,20,f,2021.2.3,2021_Nov_16_1219,trial,4,93,right,incongruent,congruent,n,Feedback,TRUE,n,TRUE,543.8374999794178,NA
Feedback,1,1,20,f,2021.2.3,2021_Nov_16_1219,trial,4,94,left,congruent,congruent,g,Feedback,TRUE,g,TRUE,455.8152999961749,NA
Feedback,1,1,20,f,2021.2.3,2021_Nov_16_1219,trial,4,95,right,congruent,congruent,j,Feedback,TRUE,j,TRUE,407.38600003533065,NA
Feedback,1,1,20,f,2021.2.3,2021_Nov_16_1219,trial,4,96,left,congruent,congruent,f,Feedback,TRUE,f,TRUE,383.19610001053684,NA
Feedback,1,1,20,f,2021.2.3,2021_Nov_16_1219,trial,4,97,right,congruent,congruent,j,Feedback,TRUE,j,TRUE,358.91449998598546,NA
Feedback,1,1,20,f,2021.2.3,2021_Nov_16_1219,trial,5,1,right,congruent,incongruent,n,No feedback,TRUE,n,TRUE,438.9739999896849,NA
Feedback,1,1,20,f,2021.2.3,2021_Nov_16_1219,trial,5,2,left,incongruent,congruent,f,No feedback,TRUE,f,TRUE,518.6258000321684,NA
Feedback,1,1,20,f,2021.2.3,2021_Nov_16_1219,trial,5,3,right,congruent,congruent,j,No feedback,TRUE,j,TRUE,414.3777000717819,NA
Feedback,1,1,20,f,2021.2.3,2021_Nov_16_1219,trial,5,4,left,congruent,congruent,g,No feedback,TRUE,g,TRUE,381.98629999533273,NA
Feedback,1,1,20,f,2021.2.3,2021_Nov_16_1219,trial,5,5,right,congruent,incongruent,n,No feedback,TRUE,n,TRUE,629.8433000338264,NA
Feedback,1,1,20,f,2021.2.3,2021_Nov_16_1219,trial,5,6,left,incongruent,incongruent,f,No feedback,TRUE,g,FALSE,365.55439996300265,NA
Feedback,1,1,20,f,2021.2.3,2021_Nov_16_1219,trial,5,7,right,incongruent,congruent,n,No feedback,TRUE,n,TRUE,381.26040005590767,NA
Feedback,1,1,20,f,2021.2.3,2021_Nov_16_1219,trial,5,8,left,congruent,incongruent,f,No feedback,TRUE,g,FALSE,476.9738999893889,NA
Feedback,1,1,20,f,2021.2.3,2021_Nov_16_1219,trial,5,9,right,incongruent,congruent,j,No feedback,TRUE,j,TRUE,396.68659993913025,NA
Feedback,1,1,20,f,2021.2.3,2021_Nov_16_1219,trial,5,10,left,congruent,congruent,f,No feedback,TRUE,f,TRUE,380.86959993233904,NA
Feedback,1,1,20,f,2021.2.3,2021_Nov_16_1219,trial,5,11,right,congruent,congruent,j,No feedback,TRUE,j,TRUE,412.28320001391694,NA
Feedback,1,1,20,f,2021.2.3,2021_Nov_16_1219,trial,5,12,left,congruent,incongruent,g,No feedback,TRUE,f,FALSE,379.72879997687414,NA
Feedback,1,1,20,f,2021.2.3,2021_Nov_16_1219,trial,5,13,right,incongruent,congruent,j,No feedback,TRUE,j,TRUE,531.7310999380425,NA
Feedback,1,1,20,f,2021.2.3,2021_Nov_16_1219,trial,5,14,left,congruent,congruent,g,No feedback,TRUE,g,TRUE,411.3369000260718,NA
Feedback,1,1,20,f,2021.2.3,2021_Nov_16_1219,trial,5,15,right,congruent,congruent,j,No feedback,TRUE,j,TRUE,331.08880004147045,NA
Feedback,1,1,20,f,2021.2.3,2021_Nov_16_1219,trial,5,16,left,congruent,incongruent,g,No feedback,TRUE,g,TRUE,578.8624999695458,NA
Feedback,1,1,20,f,2021.2.3,2021_Nov_16_1219,trial,5,17,right,incongruent,congruent,j,No feedback,TRUE,j,TRUE,362.5156999914907,NA
Feedback,1,1,20,f,2021.2.3,2021_Nov_16_1219,trial,5,18,left,congruent,congruent,f,No feedback,TRUE,f,TRUE,658.3808000432327,NA
Feedback,1,1,20,f,2021.2.3,2021_Nov_16_1219,trial,5,19,right,congruent,congruent,n,No feedback,TRUE,n,TRUE,570.2743000001642,NA
Feedback,1,1,20,f,2021.2.3,2021_Nov_16_1219,trial,5,20,left,congruent,incongruent,f,No feedback,TRUE,g,FALSE,457.8793999971822,NA
Feedback,1,1,20,f,2021.2.3,2021_Nov_16_1219,trial,5,21,right,incongruent,incongruent,n,No feedback,TRUE,n,TRUE,498.20539995562285,NA
Feedback,1,1,20,f,2021.2.3,2021_Nov_16_1219,trial,5,22,left,incongruent,incongruent,g,No feedback,TRUE,g,TRUE,961.2516000634059,NA
Feedback,1,1,20,f,2021.2.3,2021_Nov_16_1219,trial,5,23,right,incongruent,incongruent,j,No feedback,FALSE,NA,NA,NA,NA
Feedback,1,1,20,f,2021.2.3,2021_Nov_16_1219,trial,5,24,left,incongruent,incongruent,f,No feedback,TRUE,f,TRUE,696.6144000180066,NA
Feedback,1,1,20,f,2021.2.3,2021_Nov_16_1219,trial,5,25,right,incongruent,incongruent,n,No feedback,TRUE,n,TRUE,528.3159999526106,NA
Feedback,1,1,20,f,2021.2.3,2021_Nov_16_1219,trial,5,26,left,incongruent,congruent,f,No feedback,TRUE,f,TRUE,520.1564999879338,NA
Feedback,1,1,20,f,2021.2.3,2021_Nov_16_1219,trial,5,27,right,congruent,congruent,n,No feedback,TRUE,n,TRUE,415.8875000430271,NA
Feedback,1,1,20,f,2021.2.3,2021_Nov_16_1219,trial,5,28,left,congruent,congruent,g,No feedback,TRUE,g,TRUE,439.74070000695065,NA
Feedback,1,1,20,f,2021.2.3,2021_Nov_16_1219,trial,5,29,right,congruent,incongruent,j,No feedback,TRUE,j,TRUE,431.4398000133224,NA
Feedback,1,1,20,f,2021.2.3,2021_Nov_16_1219,trial,5,30,left,incongruent,incongruent,g,No feedback,TRUE,g,TRUE,623.1792999897152,NA
Feedback,1,1,20,f,2021.2.3,2021_Nov_16_1219,trial,5,31,right,incongruent,congruent,j,No feedback,TRUE,j,TRUE,414.9449999677022,NA
Feedback,1,1,20,f,2021.2.3,2021_Nov_16_1219,trial,5,32,left,congruent,incongruent,f,No feedback,TRUE,f,TRUE,494.4993000244722,NA
Feedback,1,1,20,f,2021.2.3,2021_Nov_16_1219,trial,5,33,right,incongruent,incongruent,j,No feedback,TRUE,j,TRUE,574.3326000520028,NA
Feedback,1,1,20,f,2021.2.3,2021_Nov_16_1219,trial,5,34,left,incongruent,incongruent,g,No feedback,TRUE,g,TRUE,574.1020000423307,NA
Feedback,1,1,20,f,2021.2.3,2021_Nov_16_1219,trial,5,35,right,incongruent,congruent,n,No feedback,TRUE,n,TRUE,406.0115000465885,NA
Feedback,1,1,20,f,2021.2.3,2021_Nov_16_1219,trial,5,36,left,congruent,congruent,g,No feedback,TRUE,g,TRUE,397.72639999864623,NA
Feedback,1,1,20,f,2021.2.3,2021_Nov_16_1219,trial,5,37,right,congruent,incongruent,j,No feedback,TRUE,j,TRUE,653.2585999229923,NA
Feedback,1,1,20,f,2021.2.3,2021_Nov_16_1219,trial,5,38,left,incongruent,incongruent,g,No feedback,TRUE,g,TRUE,589.0529000316747,NA
Feedback,1,1,20,f,2021.2.3,2021_Nov_16_1219,trial,5,39,right,incongruent,congruent,n,No feedback,TRUE,n,TRUE,556.7317999666559,NA
Feedback,1,1,20,f,2021.2.3,2021_Nov_16_1219,trial,5,40,left,congruent,incongruent,g,No feedback,TRUE,g,TRUE,476.5029000118375,NA
Feedback,1,1,20,f,2021.2.3,2021_Nov_16_1219,trial,5,41,right,incongruent,incongruent,n,No feedback,TRUE,n,TRUE,492.23060003714636,NA
Feedback,1,1,20,f,2021.2.3,2021_Nov_16_1219,trial,5,42,left,incongruent,incongruent,g,No feedback,TRUE,g,TRUE,596.1695999721996,NA
Feedback,1,1,20,f,2021.2.3,2021_Nov_16_1219,trial,5,43,right,incongruent,congruent,n,No feedback,TRUE,n,TRUE,467.7313999854957,NA
Feedback,1,1,20,f,2021.2.3,2021_Nov_16_1219,trial,5,44,left,congruent,incongruent,f,No feedback,TRUE,f,TRUE,515.3102000476792,NA
Feedback,1,1,20,f,2021.2.3,2021_Nov_16_1219,trial,5,45,right,incongruent,incongruent,j,No feedback,TRUE,j,TRUE,475.13909998815507,NA
Feedback,1,1,20,f,2021.2.3,2021_Nov_16_1219,trial,5,46,left,incongruent,congruent,g,No feedback,TRUE,g,TRUE,394.72549996571615,NA
Feedback,1,1,20,f,2021.2.3,2021_Nov_16_1219,trial,5,47,right,congruent,congruent,j,No feedback,TRUE,j,TRUE,346.628800034523,NA
Feedback,1,1,20,f,2021.2.3,2021_Nov_16_1219,trial,5,48,left,congruent,incongruent,f,No feedback,TRUE,f,TRUE,418.3396999724207,NA
Feedback,1,1,20,f,2021.2.3,2021_Nov_16_1219,trial,5,49,right,incongruent,incongruent,n,No feedback,TRUE,n,TRUE,458.0448000342585,NA
Feedback,1,1,20,f,2021.2.3,2021_Nov_16_1219,trial,5,50,left,incongruent,incongruent,f,No feedback,TRUE,f,TRUE,449.8214999912309,NA
Feedback,1,1,20,f,2021.2.3,2021_Nov_16_1219,trial,5,51,right,incongruent,congruent,j,No feedback,TRUE,j,TRUE,577.401800022926,NA
Feedback,1,1,20,f,2021.2.3,2021_Nov_16_1219,trial,5,52,left,congruent,congruent,f,No feedback,TRUE,f,TRUE,401.1698000249453,NA
Feedback,1,1,20,f,2021.2.3,2021_Nov_16_1219,trial,5,53,right,congruent,congruent,j,No feedback,TRUE,j,TRUE,352.9644000227563,NA
Feedback,1,1,20,f,2021.2.3,2021_Nov_16_1219,trial,5,54,left,congruent,incongruent,g,No feedback,TRUE,g,TRUE,520.8216999890285,NA
Feedback,1,1,20,f,2021.2.3,2021_Nov_16_1219,trial,5,55,right,incongruent,incongruent,n,No feedback,TRUE,n,TRUE,368.4783999924548,NA
Feedback,1,1,20,f,2021.2.3,2021_Nov_16_1219,trial,5,56,left,incongruent,incongruent,f,No feedback,TRUE,f,TRUE,368.15529997693375,NA
Feedback,1,1,20,f,2021.2.3,2021_Nov_16_1219,trial,5,57,right,incongruent,congruent,j,No feedback,TRUE,j,TRUE,327.8985000215471,NA
Feedback,1,1,20,f,2021.2.3,2021_Nov_16_1219,trial,5,58,left,congruent,congruent,g,No feedback,TRUE,g,TRUE,503.7429000367408,NA
Feedback,1,1,20,f,2021.2.3,2021_Nov_16_1219,trial,5,59,right,congruent,incongruent,j,No feedback,TRUE,j,TRUE,471.4703000499867,NA
Feedback,1,1,20,f,2021.2.3,2021_Nov_16_1219,trial,5,60,left,incongruent,incongruent,f,No feedback,TRUE,f,TRUE,423.1026000343263,NA
Feedback,1,1,20,f,2021.2.3,2021_Nov_16_1219,trial,5,61,right,incongruent,congruent,n,No feedback,TRUE,n,TRUE,462.7177999354899,NA
Feedback,1,1,20,f,2021.2.3,2021_Nov_16_1219,trial,5,62,left,congruent,incongruent,g,No feedback,TRUE,g,TRUE,430.87579996790737,NA
Feedback,1,1,20,f,2021.2.3,2021_Nov_16_1219,trial,5,63,right,incongruent,incongruent,j,No feedback,TRUE,j,TRUE,422.55020001903176,NA
Feedback,1,1,20,f,2021.2.3,2021_Nov_16_1219,trial,5,64,left,incongruent,incongruent,f,No feedback,TRUE,f,TRUE,534.2083000577986,NA
Feedback,1,1,20,f,2021.2.3,2021_Nov_16_1219,trial,5,65,right,incongruent,incongruent,j,No feedback,TRUE,j,TRUE,509.85650002257876,NA
Feedback,1,1,20,f,2021.2.3,2021_Nov_16_1219,trial,5,66,left,incongruent,congruent,g,No feedback,TRUE,g,TRUE,565.4431000584734,NA
Feedback,1,1,20,f,2021.2.3,2021_Nov_16_1219,trial,5,67,right,congruent,congruent,j,No feedback,TRUE,j,TRUE,349.3259000242688,NA
Feedback,1,1,20,f,2021.2.3,2021_Nov_16_1219,trial,5,68,left,congruent,incongruent,f,No feedback,TRUE,f,TRUE,533.1390000064857,NA
Feedback,1,1,20,f,2021.2.3,2021_Nov_16_1219,trial,5,69,right,incongruent,congruent,n,No feedback,TRUE,g,FALSE,428.8267999654636,NA
Feedback,1,1,20,f,2021.2.3,2021_Nov_16_1219,trial,5,70,left,congruent,congruent,g,No feedback,TRUE,g,TRUE,1068.4604999842122,NA
Feedback,1,1,20,f,2021.2.3,2021_Nov_16_1219,trial,5,71,right,congruent,incongruent,n,No feedback,TRUE,j,FALSE,364.4410000415521,NA
Feedback,1,1,20,f,2021.2.3,2021_Nov_16_1219,trial,5,72,left,incongruent,congruent,f,No feedback,TRUE,f,TRUE,404.04030005447567,NA
Feedback,1,1,20,f,2021.2.3,2021_Nov_16_1219,trial,5,73,right,congruent,incongruent,n,No feedback,TRUE,n,TRUE,459.6938999602571,NA
Feedback,1,1,20,f,2021.2.3,2021_Nov_16_1219,trial,5,74,left,incongruent,incongruent,g,No feedback,TRUE,g,TRUE,563.1796999950891,NA
Feedback,1,1,20,f,2021.2.3,2021_Nov_16_1219,trial,5,75,right,incongruent,incongruent,n,No feedback,TRUE,n,TRUE,483.1148999510333,NA
Feedback,1,1,20,f,2021.2.3,2021_Nov_16_1219,trial,5,76,left,incongruent,congruent,g,No feedback,TRUE,g,TRUE,444.00000001769536,NA
Feedback,1,1,20,f,2021.2.3,2021_Nov_16_1219,trial,5,77,right,congruent,congruent,n,No feedback,TRUE,n,TRUE,500.33960002474487,NA
Feedback,1,1,20,f,2021.2.3,2021_Nov_16_1219,trial,5,78,left,congruent,congruent,f,No feedback,TRUE,f,TRUE,548.5311000375077,NA
Feedback,1,1,20,f,2021.2.3,2021_Nov_16_1219,trial,5,79,right,congruent,incongruent,j,No feedback,TRUE,j,TRUE,564.859600039199,NA
Feedback,1,1,20,f,2021.2.3,2021_Nov_16_1219,trial,5,80,left,incongruent,congruent,g,No feedback,TRUE,g,TRUE,628.3917000400834,NA
Feedback,1,1,20,f,2021.2.3,2021_Nov_16_1219,trial,5,81,right,congruent,incongruent,n,No feedback,TRUE,j,FALSE,436.24519999139056,NA
Feedback,1,1,20,f,2021.2.3,2021_Nov_16_1219,trial,5,82,left,incongruent,congruent,g,No feedback,TRUE,g,TRUE,444.0718000405468,NA
Feedback,1,1,20,f,2021.2.3,2021_Nov_16_1219,trial,5,83,right,congruent,congruent,n,No feedback,TRUE,n,TRUE,403.9385999785736,NA
Feedback,1,1,20,f,2021.2.3,2021_Nov_16_1219,trial,5,84,left,congruent,congruent,f,No feedback,TRUE,f,TRUE,435.3760999510996,NA
Feedback,1,1,20,f,2021.2.3,2021_Nov_16_1219,trial,5,85,right,congruent,congruent,n,No feedback,TRUE,n,TRUE,347.47280000010505,NA
Feedback,1,1,20,f,2021.2.3,2021_Nov_16_1219,trial,5,86,left,congruent,congruent,f,No feedback,TRUE,f,TRUE,379.05540002975613,NA
Feedback,1,1,20,f,2021.2.3,2021_Nov_16_1219,trial,5,87,right,congruent,incongruent,j,No feedback,TRUE,j,TRUE,546.4643000159413,NA
Feedback,1,1,20,f,2021.2.3,2021_Nov_16_1219,trial,5,88,left,incongruent,congruent,f,No feedback,TRUE,f,TRUE,450.5096999928355,NA
Feedback,1,1,20,f,2021.2.3,2021_Nov_16_1219,trial,5,89,right,congruent,incongruent,j,No feedback,TRUE,j,TRUE,498.2515000156127,NA
Feedback,1,1,20,f,2021.2.3,2021_Nov_16_1219,trial,5,90,left,incongruent,congruent,f,No feedback,TRUE,f,TRUE,377.84800003282726,NA
Feedback,1,1,20,f,2021.2.3,2021_Nov_16_1219,trial,5,91,right,congruent,incongruent,n,No feedback,TRUE,j,FALSE,433.76580002950504,NA
Feedback,1,1,20,f,2021.2.3,2021_Nov_16_1219,trial,5,92,left,incongruent,congruent,g,No feedback,TRUE,g,TRUE,401.1945999809543,NA
Feedback,1,1,20,f,2021.2.3,2021_Nov_16_1219,trial,5,93,right,congruent,congruent,n,No feedback,TRUE,n,TRUE,473.10170001583174,NA
Feedback,1,1,20,f,2021.2.3,2021_Nov_16_1219,trial,5,94,left,congruent,incongruent,g,No feedback,TRUE,g,TRUE,512.6453000702897,NA
Feedback,1,1,20,f,2021.2.3,2021_Nov_16_1219,trial,5,95,right,incongruent,incongruent,j,No feedback,TRUE,j,TRUE,416.5624000015671,NA
Feedback,1,1,20,f,2021.2.3,2021_Nov_16_1219,trial,5,96,left,incongruent,congruent,f,No feedback,TRUE,f,TRUE,400.3488000598736,NA
Feedback,1,1,20,f,2021.2.3,2021_Nov_16_1219,trial,5,97,right,congruent,incongruent,n,No feedback,TRUE,n,TRUE,479.90449995268136,NA
Feedback,1,1,20,f,2021.2.3,2021_Nov_16_1219,trial,6,1,right,incongruent,incongruent,n,No feedback,TRUE,n,TRUE,521.8488000682555,NA
Feedback,1,1,20,f,2021.2.3,2021_Nov_16_1219,trial,6,2,left,incongruent,incongruent,f,No feedback,TRUE,f,TRUE,473.52349996799603,NA
Feedback,1,1,20,f,2021.2.3,2021_Nov_16_1219,trial,6,3,right,incongruent,congruent,n,No feedback,TRUE,n,TRUE,377.2630000021311,NA
Feedback,1,1,20,f,2021.2.3,2021_Nov_16_1219,trial,6,4,left,congruent,congruent,g,No feedback,TRUE,g,TRUE,449.0110000479035,NA
Feedback,1,1,20,f,2021.2.3,2021_Nov_16_1219,trial,6,5,right,congruent,incongruent,n,No feedback,TRUE,n,TRUE,481.18919995613396,NA
Feedback,1,1,20,f,2021.2.3,2021_Nov_16_1219,trial,6,6,left,incongruent,congruent,g,No feedback,TRUE,g,TRUE,392.52539997687563,NA
Feedback,1,1,20,f,2021.2.3,2021_Nov_16_1219,trial,6,7,right,congruent,congruent,n,No feedback,TRUE,n,TRUE,368.2173000415787,NA
Feedback,1,1,20,f,2021.2.3,2021_Nov_16_1219,trial,6,8,left,congruent,incongruent,g,No feedback,TRUE,g,TRUE,527.9159999918193,NA
Feedback,1,1,20,f,2021.2.3,2021_Nov_16_1219,trial,6,9,right,incongruent,incongruent,n,No feedback,TRUE,n,TRUE,479.59699999773875,NA
Feedback,1,1,20,f,2021.2.3,2021_Nov_16_1219,trial,6,10,left,incongruent,incongruent,f,No feedback,TRUE,f,TRUE,511.21540006715804,NA
Feedback,1,1,20,f,2021.2.3,2021_Nov_16_1219,trial,6,11,right,incongruent,congruent,n,No feedback,TRUE,n,TRUE,487.0853000320494,NA
Feedback,1,1,20,f,2021.2.3,2021_Nov_16_1219,trial,6,12,left,congruent,congruent,f,No feedback,TRUE,f,TRUE,382.93629995314427,NA
Feedback,1,1,20,f,2021.2.3,2021_Nov_16_1219,trial,6,13,right,congruent,incongruent,n,No feedback,TRUE,j,FALSE,358.57090004719794,NA
Feedback,1,1,20,f,2021.2.3,2021_Nov_16_1219,trial,6,14,left,incongruent,incongruent,f,No feedback,TRUE,f,TRUE,582.2689999477002,NA
Feedback,1,1,20,f,2021.2.3,2021_Nov_16_1219,trial,6,15,right,incongruent,congruent,n,No feedback,TRUE,n,TRUE,366.14279996138043,NA
Feedback,1,1,20,f,2021.2.3,2021_Nov_16_1219,trial,6,16,left,congruent,incongruent,g,No feedback,TRUE,g,TRUE,541.8561000260524,NA
Feedback,1,1,20,f,2021.2.3,2021_Nov_16_1219,trial,6,17,right,incongruent,congruent,j,No feedback,TRUE,j,TRUE,357.6177999493666,NA
Feedback,1,1,20,f,2021.2.3,2021_Nov_16_1219,trial,6,18,left,congruent,congruent,f,No feedback,TRUE,f,TRUE,349.1970999748446,NA
Feedback,1,1,20,f,2021.2.3,2021_Nov_16_1219,trial,6,19,right,congruent,incongruent,j,No feedback,TRUE,n,FALSE,405.0836000242266,NA
Feedback,1,1,20,f,2021.2.3,2021_Nov_16_1219,trial,6,20,left,incongruent,incongruent,f,No feedback,TRUE,f,TRUE,461.43550000851974,NA
Feedback,1,1,20,f,2021.2.3,2021_Nov_16_1219,trial,6,21,right,incongruent,incongruent,n,No feedback,TRUE,j,FALSE,461.10610006144293,NA
Feedback,1,1,20,f,2021.2.3,2021_Nov_16_1219,trial,6,22,left,incongruent,incongruent,g,No feedback,TRUE,g,TRUE,636.7815000703558,NA
Feedback,1,1,20,f,2021.2.3,2021_Nov_16_1219,trial,6,23,right,incongruent,congruent,j,No feedback,TRUE,j,TRUE,460.8154000598006,NA
Feedback,1,1,20,f,2021.2.3,2021_Nov_16_1219,trial,6,24,left,congruent,congruent,g,No feedback,TRUE,g,TRUE,428.20520000532247,NA
Feedback,1,1,20,f,2021.2.3,2021_Nov_16_1219,trial,6,25,right,congruent,congruent,j,No feedback,TRUE,j,TRUE,364.4687000196427,NA
Feedback,1,1,20,f,2021.2.3,2021_Nov_16_1219,trial,6,26,left,congruent,incongruent,g,No feedback,TRUE,f,FALSE,443.75269999727607,NA
Feedback,1,1,20,f,2021.2.3,2021_Nov_16_1219,trial,6,27,right,incongruent,incongruent,n,No feedback,TRUE,n,TRUE,523.5272999270819,NA
Feedback,1,1,20,f,2021.2.3,2021_Nov_16_1219,trial,6,28,left,incongruent,congruent,g,No feedback,TRUE,f,FALSE,403.32150005269796,NA
Feedback,1,1,20,f,2021.2.3,2021_Nov_16_1219,trial,6,29,right,congruent,congruent,j,No feedback,TRUE,j,TRUE,515.0595000595783,NA
Feedback,1,1,20,f,2021.2.3,2021_Nov_16_1219,trial,6,30,left,congruent,congruent,g,No feedback,TRUE,g,TRUE,434.7575000138024,NA
Feedback,1,1,20,f,2021.2.3,2021_Nov_16_1219,trial,6,31,right,congruent,incongruent,j,No feedback,TRUE,n,FALSE,354.61630002828315,NA
Feedback,1,1,20,f,2021.2.3,2021_Nov_16_1219,trial,6,32,left,incongruent,incongruent,f,No feedback,TRUE,f,TRUE,586.3020000397228,NA
Feedback,1,1,20,f,2021.2.3,2021_Nov_16_1219,trial,6,33,right,incongruent,congruent,j,No feedback,TRUE,j,TRUE,386.01990003371634,NA
Feedback,1,1,20,f,2021.2.3,2021_Nov_16_1219,trial,6,34,left,congruent,incongruent,g,No feedback,TRUE,g,TRUE,513.6028999695557,NA
Feedback,1,1,20,f,2021.2.3,2021_Nov_16_1219,trial,6,35,right,incongruent,incongruent,j,No feedback,TRUE,j,TRUE,521.4937999844551,NA
Feedback,1,1,20,f,2021.2.3,2021_Nov_16_1219,trial,6,36,left,incongruent,incongruent,f,No feedback,TRUE,g,FALSE,545.1392000541091,NA
Feedback,1,1,20,f,2021.2.3,2021_Nov_16_1219,trial,6,37,right,incongruent,congruent,j,No feedback,TRUE,j,TRUE,584.8589000524953,NA
Feedback,1,1,20,f,2021.2.3,2021_Nov_16_1219,trial,6,38,left,congruent,incongruent,f,No feedback,TRUE,f,TRUE,584.6001000609249,NA
Feedback,1,1,20,f,2021.2.3,2021_Nov_16_1219,trial,6,39,right,incongruent,incongruent,j,No feedback,TRUE,n,FALSE,360.3579999762587,NA
Feedback,1,1,20,f,2021.2.3,2021_Nov_16_1219,trial,6,40,left,incongruent,congruent,g,No feedback,TRUE,g,TRUE,488.19960001856066,NA
Feedback,1,1,20,f,2021.2.3,2021_Nov_16_1219,trial,6,41,right,congruent,incongruent,n,No feedback,TRUE,j,FALSE,327.8230999712832,NA
Feedback,1,1,20,f,2021.2.3,2021_Nov_16_1219,trial,6,42,left,incongruent,congruent,g,No feedback,TRUE,g,TRUE,351.5859000617638,NA
Feedback,1,1,20,f,2021.2.3,2021_Nov_16_1219,trial,6,43,right,congruent,incongruent,j,No feedback,TRUE,j,TRUE,471.3814999558963,NA
Feedback,1,1,20,f,2021.2.3,2021_Nov_16_1219,trial,6,44,left,incongruent,congruent,g,No feedback,TRUE,g,TRUE,430.98649999592453,NA
Feedback,1,1,20,f,2021.2.3,2021_Nov_16_1219,trial,6,45,right,congruent,congruent,n,No feedback,TRUE,n,TRUE,398.6520000034943,NA
Feedback,1,1,20,f,2021.2.3,2021_Nov_16_1219,trial,6,46,left,congruent,congruent,g,No feedback,TRUE,g,TRUE,398.51730002555996,NA
Feedback,1,1,20,f,2021.2.3,2021_Nov_16_1219,trial,6,47,right,congruent,incongruent,n,No feedback,TRUE,n,TRUE,550.3148000570943,NA
Feedback,1,1,20,f,2021.2.3,2021_Nov_16_1219,trial,6,48,left,incongruent,congruent,f,No feedback,TRUE,f,TRUE,422.06250003073364,NA
Feedback,1,1,20,f,2021.2.3,2021_Nov_16_1219,trial,6,49,right,congruent,congruent,n,No feedback,TRUE,n,TRUE,429.63519995100773,NA
Feedback,1,1,20,f,2021.2.3,2021_Nov_16_1219,trial,6,50,left,congruent,congruent,f,No feedback,TRUE,f,TRUE,389.4888999639079,NA
Feedback,1,1,20,f,2021.2.3,2021_Nov_16_1219,trial,6,51,right,congruent,incongruent,n,No feedback,TRUE,n,TRUE,533.1557000172322,NA
Feedback,1,1,20,f,2021.2.3,2021_Nov_16_1219,trial,6,52,left,incongruent,congruent,f,No feedback,TRUE,f,TRUE,381.0729000833817,NA
Feedback,1,1,20,f,2021.2.3,2021_Nov_16_1219,trial,6,53,right,congruent,incongruent,j,No feedback,TRUE,j,TRUE,516.6534000309184,NA
Feedback,1,1,20,f,2021.2.3,2021_Nov_16_1219,trial,6,54,left,incongruent,congruent,f,No feedback,TRUE,f,TRUE,380.3993000765331,NA
Feedback,1,1,20,f,2021.2.3,2021_Nov_16_1219,trial,6,55,right,congruent,congruent,j,No feedback,TRUE,j,TRUE,364.43840007996187,NA
Feedback,1,1,20,f,2021.2.3,2021_Nov_16_1219,trial,6,56,left,congruent,congruent,f,No feedback,TRUE,f,TRUE,395.8077999996019,NA
Feedback,1,1,20,f,2021.2.3,2021_Nov_16_1219,trial,6,57,right,congruent,incongruent,n,No feedback,TRUE,n,TRUE,451.5280000632629,NA
Feedback,1,1,20,f,2021.2.3,2021_Nov_16_1219,trial,6,58,left,incongruent,incongruent,g,No feedback,TRUE,g,TRUE,611.2933000549672,NA
Feedback,1,1,20,f,2021.2.3,2021_Nov_16_1219,trial,6,59,right,incongruent,incongruent,j,No feedback,TRUE,j,TRUE,507.06370000261813,NA
Feedback,1,1,20,f,2021.2.3,2021_Nov_16_1219,trial,6,60,left,incongruent,congruent,g,No feedback,TRUE,g,TRUE,442.8308000206016,NA
Feedback,1,1,20,f,2021.2.3,2021_Nov_16_1219,trial,6,61,right,congruent,congruent,n,No feedback,TRUE,n,TRUE,426.52389995055273,NA
Feedback,1,1,20,f,2021.2.3,2021_Nov_16_1219,trial,6,62,left,congruent,incongruent,f,No feedback,TRUE,f,TRUE,490.22270005662017,NA
Feedback,1,1,20,f,2021.2.3,2021_Nov_16_1219,trial,6,63,right,incongruent,congruent,j,No feedback,TRUE,j,TRUE,345.80969996750355,NA
Feedback,1,1,20,f,2021.2.3,2021_Nov_16_1219,trial,6,64,left,congruent,congruent,f,No feedback,TRUE,f,TRUE,513.5394000681117,NA
Feedback,1,1,20,f,2021.2.3,2021_Nov_16_1219,trial,6,65,right,congruent,congruent,n,No feedback,TRUE,n,TRUE,337.3671000590548,NA
Feedback,1,1,20,f,2021.2.3,2021_Nov_16_1219,trial,6,66,left,congruent,congruent,g,No feedback,TRUE,f,FALSE,433.2658000057563,NA
Feedback,1,1,20,f,2021.2.3,2021_Nov_16_1219,trial,6,67,right,congruent,incongruent,j,No feedback,TRUE,j,TRUE,536.8714000214823,NA
Feedback,1,1,20,f,2021.2.3,2021_Nov_16_1219,trial,6,68,left,incongruent,incongruent,g,No feedback,TRUE,g,TRUE,440.63530006678775,NA
Feedback,1,1,20,f,2021.2.3,2021_Nov_16_1219,trial,6,69,right,incongruent,congruent,j,No feedback,TRUE,j,TRUE,480.28909997083247,NA
Feedback,1,1,20,f,2021.2.3,2021_Nov_16_1219,trial,6,70,left,congruent,congruent,g,No feedback,TRUE,g,TRUE,376.1071001063101,NA
Feedback,1,1,20,f,2021.2.3,2021_Nov_16_1219,trial,6,71,right,congruent,congruent,j,No feedback,TRUE,j,TRUE,375.8291000267491,NA
Feedback,1,1,20,f,2021.2.3,2021_Nov_16_1219,trial,6,72,left,congruent,incongruent,f,No feedback,TRUE,f,TRUE,463.4018000215292,NA
Feedback,1,1,20,f,2021.2.3,2021_Nov_16_1219,trial,6,73,right,incongruent,incongruent,j,No feedback,TRUE,j,TRUE,487.3698000446891,NA
Feedback,1,1,20,f,2021.2.3,2021_Nov_16_1219,trial,6,74,left,incongruent,incongruent,g,No feedback,TRUE,g,TRUE,678.8872999604794,NA
Feedback,1,1,20,f,2021.2.3,2021_Nov_16_1219,trial,6,75,right,incongruent,incongruent,j,No feedback,TRUE,j,TRUE,462.63629995519295,NA
Feedback,1,1,20,f,2021.2.3,2021_Nov_16_1219,trial,6,76,left,incongruent,congruent,f,No feedback,TRUE,f,TRUE,438.5508999694139,NA
Feedback,1,1,20,f,2021.2.3,2021_Nov_16_1219,trial,6,77,right,congruent,incongruent,j,No feedback,TRUE,j,TRUE,446.10840000677854,NA
Feedback,1,1,20,f,2021.2.3,2021_Nov_16_1219,trial,6,78,left,incongruent,incongruent,g,No feedback,TRUE,g,TRUE,501.955000043381,NA
Feedback,1,1,20,f,2021.2.3,2021_Nov_16_1219,trial,6,79,right,incongruent,congruent,n,No feedback,TRUE,j,FALSE,397.6271999417804,NA
Feedback,1,1,20,f,2021.2.3,2021_Nov_16_1219,trial,6,80,left,congruent,congruent,f,No feedback,TRUE,f,TRUE,413.2429000455886,NA
Feedback,1,1,20,f,2021.2.3,2021_Nov_16_1219,trial,6,81,right,congruent,congruent,n,No feedback,TRUE,n,TRUE,517.2011999529786,NA
Feedback,1,1,20,f,2021.2.3,2021_Nov_16_1219,trial,6,82,left,congruent,incongruent,g,No feedback,TRUE,g,TRUE,628.9234000141732,NA
Feedback,1,1,20,f,2021.2.3,2021_Nov_16_1219,trial,6,83,right,incongruent,congruent,n,No feedback,TRUE,n,TRUE,388.6676000547593,NA
Feedback,1,1,20,f,2021.2.3,2021_Nov_16_1219,trial,6,84,left,congruent,incongruent,f,No feedback,TRUE,f,TRUE,452.4055999354457,NA
Feedback,1,1,20,f,2021.2.3,2021_Nov_16_1219,trial,6,85,right,incongruent,incongruent,j,No feedback,TRUE,j,TRUE,476.0966000030746,NA
Feedback,1,1,20,f,2021.2.3,2021_Nov_16_1219,trial,6,86,left,incongruent,congruent,f,No feedback,TRUE,f,TRUE,523.842499998864,NA
Feedback,1,1,20,f,2021.2.3,2021_Nov_16_1219,trial,6,87,right,congruent,congruent,j,No feedback,TRUE,j,TRUE,387.50000001164153,NA
Feedback,1,1,20,f,2021.2.3,2021_Nov_16_1219,trial,6,88,left,congruent,incongruent,g,No feedback,TRUE,g,TRUE,491.3153999950737,NA
Feedback,1,1,20,f,2021.2.3,2021_Nov_16_1219,trial,6,89,right,incongruent,incongruent,n,No feedback,TRUE,n,TRUE,507.06560001708544,NA
Feedback,1,1,20,f,2021.2.3,2021_Nov_16_1219,trial,6,90,left,incongruent,congruent,f,No feedback,TRUE,f,TRUE,442.8109000436964,NA
Feedback,1,1,20,f,2021.2.3,2021_Nov_16_1219,trial,6,91,right,congruent,congruent,j,No feedback,FALSE,NA,NA,NA,NA
Feedback,1,1,20,f,2021.2.3,2021_Nov_16_1219,trial,6,92,left,congruent,incongruent,f,No feedback,TRUE,f,TRUE,530.1389999804087,NA
Feedback,1,1,20,f,2021.2.3,2021_Nov_16_1219,trial,6,93,right,incongruent,incongruent,n,No feedback,TRUE,n,TRUE,385.93559997389093,NA
Feedback,1,1,20,f,2021.2.3,2021_Nov_16_1219,trial,6,94,left,incongruent,incongruent,g,No feedback,TRUE,g,TRUE,473.67770003620535,NA
Feedback,1,1,20,f,2021.2.3,2021_Nov_16_1219,trial,6,95,right,incongruent,congruent,n,No feedback,TRUE,n,TRUE,409.4030000269413,NA
Feedback,1,1,20,f,2021.2.3,2021_Nov_16_1219,trial,6,96,left,congruent,incongruent,f,No feedback,TRUE,f,TRUE,473.16669998690486,NA
Feedback,1,1,20,f,2021.2.3,2021_Nov_16_1219,trial,6,97,right,incongruent,incongruent,n,No feedback,TRUE,n,TRUE,408.9172000531107,NA
Feedback,1,1,20,f,2021.2.3,2021_Nov_16_1219,trial,7,1,right,incongruent,incongruent,n,No feedback,TRUE,n,TRUE,531.6142999799922,NA
Feedback,1,1,20,f,2021.2.3,2021_Nov_16_1219,trial,7,2,left,incongruent,congruent,g,No feedback,TRUE,g,TRUE,515.2589000063017,NA
Feedback,1,1,20,f,2021.2.3,2021_Nov_16_1219,trial,7,3,right,congruent,incongruent,n,No feedback,TRUE,n,TRUE,426.8931000260636,NA
Feedback,1,1,20,f,2021.2.3,2021_Nov_16_1219,trial,7,4,left,incongruent,incongruent,f,No feedback,TRUE,f,TRUE,506.7920000292361,NA
Feedback,1,1,20,f,2021.2.3,2021_Nov_16_1219,trial,7,5,right,incongruent,incongruent,j,No feedback,TRUE,n,FALSE,386.48210006067507,NA
Feedback,1,1,20,f,2021.2.3,2021_Nov_16_1219,trial,7,6,left,incongruent,congruent,g,No feedback,TRUE,g,TRUE,418.24529995210446,NA
Feedback,1,1,20,f,2021.2.3,2021_Nov_16_1219,trial,7,7,right,congruent,congruent,n,No feedback,TRUE,n,TRUE,433.86990000726655,NA
Feedback,1,1,20,f,2021.2.3,2021_Nov_16_1219,trial,7,8,left,congruent,incongruent,f,No feedback,TRUE,f,TRUE,457.5826999498531,NA
Feedback,1,1,20,f,2021.2.3,2021_Nov_16_1219,trial,7,9,right,incongruent,congruent,n,No feedback,TRUE,n,TRUE,369.4488000473939,NA
Feedback,1,1,20,f,2021.2.3,2021_Nov_16_1219,trial,7,10,left,congruent,congruent,g,No feedback,TRUE,g,TRUE,377.16969999019057,NA
Feedback,1,1,20,f,2021.2.3,2021_Nov_16_1219,trial,7,11,right,congruent,congruent,n,No feedback,TRUE,n,TRUE,368.9832000527531,NA
Feedback,1,1,20,f,2021.2.3,2021_Nov_16_1219,trial,7,12,left,congruent,congruent,g,No feedback,TRUE,g,TRUE,416.7172000743449,NA
Feedback,1,1,20,f,2021.2.3,2021_Nov_16_1219,trial,7,13,right,congruent,congruent,j,No feedback,TRUE,j,TRUE,368.4169999905862,NA
Feedback,1,1,20,f,2021.2.3,2021_Nov_16_1219,trial,7,14,left,congruent,incongruent,g,No feedback,TRUE,g,TRUE,432.01750004664063,NA
Feedback,1,1,20,f,2021.2.3,2021_Nov_16_1219,trial,7,15,right,incongruent,congruent,n,No feedback,TRUE,n,TRUE,336.44860005006217,NA
Feedback,1,1,20,f,2021.2.3,2021_Nov_16_1219,trial,7,16,left,congruent,congruent,f,No feedback,TRUE,f,TRUE,359.58590009249747,NA
Feedback,1,1,20,f,2021.2.3,2021_Nov_16_1219,trial,7,17,right,congruent,congruent,j,No feedback,TRUE,j,TRUE,359.339699964039,NA
Feedback,1,1,20,f,2021.2.3,2021_Nov_16_1219,trial,7,18,left,congruent,congruent,f,No feedback,TRUE,f,TRUE,535.0139000802301,NA
Feedback,1,1,20,f,2021.2.3,2021_Nov_16_1219,trial,7,19,right,congruent,congruent,j,No feedback,TRUE,j,TRUE,310.7222000253387,NA
Feedback,1,1,20,f,2021.2.3,2021_Nov_16_1219,trial,7,20,left,congruent,incongruent,f,No feedback,TRUE,f,TRUE,510.51320001715794,NA
Feedback,1,1,20,f,2021.2.3,2021_Nov_16_1219,trial,7,21,right,incongruent,congruent,j,No feedback,TRUE,j,TRUE,374.31770004332066,NA
Feedback,1,1,20,f,2021.2.3,2021_Nov_16_1219,trial,7,22,left,congruent,congruent,g,No feedback,TRUE,g,TRUE,406.024500087369,NA
Feedback,1,1,20,f,2021.2.3,2021_Nov_16_1219,trial,7,23,right,congruent,congruent,j,No feedback,TRUE,j,TRUE,341.70720004476607,NA
Feedback,1,1,20,f,2021.2.3,2021_Nov_16_1219,trial,7,24,left,congruent,incongruent,g,No feedback,TRUE,g,TRUE,541.4335000095887,NA
Feedback,1,1,20,f,2021.2.3,2021_Nov_16_1219,trial,7,25,right,incongruent,congruent,j,No feedback,TRUE,j,TRUE,349.3035999708809,NA
Feedback,1,1,20,f,2021.2.3,2021_Nov_16_1219,trial,7,26,left,congruent,congruent,f,No feedback,TRUE,f,TRUE,396.7799000092782,NA
Feedback,1,1,20,f,2021.2.3,2021_Nov_16_1219,trial,7,27,right,congruent,incongruent,n,No feedback,TRUE,n,TRUE,492.70309996791184,NA
Feedback,1,1,20,f,2021.2.3,2021_Nov_16_1219,trial,7,28,left,incongruent,congruent,f,No feedback,TRUE,g,FALSE,436.3303999998607,NA
Feedback,1,1,20,f,2021.2.3,2021_Nov_16_1219,trial,7,29,right,congruent,congruent,n,No feedback,TRUE,j,FALSE,388.25309998355783,NA
Feedback,1,1,20,f,2021.2.3,2021_Nov_16_1219,trial,7,30,left,congruent,congruent,g,No feedback,TRUE,g,TRUE,467.7252000547014,NA
Feedback,1,1,20,f,2021.2.3,2021_Nov_16_1219,trial,7,31,right,congruent,incongruent,j,No feedback,TRUE,j,TRUE,507.5822999933737,NA
Feedback,1,1,20,f,2021.2.3,2021_Nov_16_1219,trial,7,32,left,incongruent,incongruent,f,No feedback,TRUE,f,TRUE,395.3127999557182,NA
Feedback,1,1,20,f,2021.2.3,2021_Nov_16_1219,trial,7,33,right,incongruent,congruent,n,No feedback,TRUE,n,TRUE,355.06620001979195,NA
Feedback,1,1,20,f,2021.2.3,2021_Nov_16_1219,trial,7,34,left,congruent,incongruent,f,No feedback,TRUE,f,TRUE,490.93670008005574,NA
Feedback,1,1,20,f,2021.2.3,2021_Nov_16_1219,trial,7,35,right,incongruent,incongruent,n,No feedback,TRUE,n,TRUE,426.53890000656224,NA
Feedback,1,1,20,f,2021.2.3,2021_Nov_16_1219,trial,7,36,left,incongruent,congruent,g,No feedback,TRUE,g,TRUE,490.2501000324264,NA
Feedback,1,1,20,f,2021.2.3,2021_Nov_16_1219,trial,7,37,right,congruent,congruent,j,No feedback,TRUE,n,FALSE,401.9632999552414,NA
Feedback,1,1,20,f,2021.2.3,2021_Nov_16_1219,trial,7,38,left,congruent,incongruent,f,No feedback,TRUE,f,TRUE,425.7379000191577,NA
Feedback,1,1,20,f,2021.2.3,2021_Nov_16_1219,trial,7,39,right,incongruent,congruent,j,No feedback,TRUE,j,TRUE,401.39980003004894,NA
Feedback,1,1,20,f,2021.2.3,2021_Nov_16_1219,trial,7,40,left,congruent,incongruent,g,No feedback,TRUE,g,TRUE,585.1809000014327,NA
Feedback,1,1,20,f,2021.2.3,2021_Nov_16_1219,trial,7,41,right,incongruent,incongruent,n,No feedback,TRUE,n,TRUE,520.8567000809126,NA
Feedback,1,1,20,f,2021.2.3,2021_Nov_16_1219,trial,7,42,left,incongruent,incongruent,f,No feedback,TRUE,f,TRUE,480.6412000325506,NA
Feedback,1,1,20,f,2021.2.3,2021_Nov_16_1219,trial,7,43,right,incongruent,incongruent,j,No feedback,TRUE,j,TRUE,440.4337999876591,NA
Feedback,1,1,20,f,2021.2.3,2021_Nov_16_1219,trial,7,44,left,incongruent,incongruent,f,No feedback,TRUE,f,TRUE,480.08860007394105,NA
Feedback,1,1,20,f,2021.2.3,2021_Nov_16_1219,trial,7,45,right,incongruent,congruent,n,No feedback,TRUE,n,TRUE,367.787400027737,NA
Feedback,1,1,20,f,2021.2.3,2021_Nov_16_1219,trial,7,46,left,congruent,incongruent,g,No feedback,TRUE,g,TRUE,407.6232999796048,NA
Feedback,1,1,20,f,2021.2.3,2021_Nov_16_1219,trial,7,47,right,incongruent,incongruent,j,No feedback,TRUE,j,TRUE,479.2214000481181,NA
Feedback,1,1,20,f,2021.2.3,2021_Nov_16_1219,trial,7,48,left,incongruent,congruent,f,No feedback,TRUE,f,TRUE,431.1674000346104,NA
Feedback,1,1,20,f,2021.2.3,2021_Nov_16_1219,trial,7,49,right,congruent,incongruent,j,No feedback,TRUE,j,TRUE,454.83699993928894,NA
Feedback,1,1,20,f,2021.2.3,2021_Nov_16_1219,trial,7,50,left,incongruent,congruent,g,No feedback,TRUE,g,TRUE,438.57360002584755,NA
Feedback,1,1,20,f,2021.2.3,2021_Nov_16_1219,trial,7,51,right,congruent,incongruent,n,No feedback,TRUE,j,FALSE,342.2844000160692,NA
Feedback,1,1,20,f,2021.2.3,2021_Nov_16_1219,trial,7,52,left,incongruent,congruent,g,No feedback,TRUE,g,TRUE,422.0803999924101,NA
Feedback,1,1,20,f,2021.2.3,2021_Nov_16_1219,trial,7,53,right,congruent,congruent,n,No feedback,TRUE,n,TRUE,557.7550000161864,NA
Feedback,1,1,20,f,2021.2.3,2021_Nov_16_1219,trial,7,54,left,congruent,incongruent,g,No feedback,TRUE,g,TRUE,485.4916000040248,NA
Feedback,1,1,20,f,2021.2.3,2021_Nov_16_1219,trial,7,55,right,incongruent,incongruent,j,No feedback,TRUE,j,TRUE,485.209800011944,NA
Feedback,1,1,20,f,2021.2.3,2021_Nov_16_1219,trial,7,56,left,incongruent,congruent,f,No feedback,TRUE,f,TRUE,389.0005000284873,NA
Feedback,1,1,20,f,2021.2.3,2021_Nov_16_1219,trial,7,57,right,congruent,congruent,n,No feedback,TRUE,n,TRUE,380.96060004318133,NA
Feedback,1,1,20,f,2021.2.3,2021_Nov_16_1219,trial,7,58,left,congruent,incongruent,g,No feedback,TRUE,g,TRUE,468.3061999967324,NA
Feedback,1,1,20,f,2021.2.3,2021_Nov_16_1219,trial,7,59,right,incongruent,incongruent,n,No feedback,TRUE,n,TRUE,476.1567000532523,NA
Feedback,1,1,20,f,2021.2.3,2021_Nov_16_1219,trial,7,60,left,incongruent,incongruent,f,No feedback,TRUE,f,TRUE,475.8867000346072,NA
Feedback,1,1,20,f,2021.2.3,2021_Nov_16_1219,trial,7,61,right,incongruent,incongruent,n,No feedback,TRUE,n,TRUE,507.62559997383505,NA
Feedback,1,1,20,f,2021.2.3,2021_Nov_16_1219,trial,7,62,left,incongruent,congruent,f,No feedback,TRUE,f,TRUE,459.3505000229925,NA
Feedback,1,1,20,f,2021.2.3,2021_Nov_16_1219,trial,7,63,right,congruent,incongruent,n,No feedback,TRUE,n,TRUE,443.1183999986388,NA
Feedback,1,1,20,f,2021.2.3,2021_Nov_16_1219,trial,7,64,left,incongruent,incongruent,g,No feedback,TRUE,g,TRUE,482.8872000798581,NA
Feedback,1,1,20,f,2021.2.3,2021_Nov_16_1219,trial,7,65,right,incongruent,incongruent,j,No feedback,TRUE,j,TRUE,506.5087000839412,NA
Feedback,1,1,20,f,2021.2.3,2021_Nov_16_1219,trial,7,66,left,incongruent,incongruent,g,No feedback,TRUE,g,TRUE,554.2258999776095,NA
Feedback,1,1,20,f,2021.2.3,2021_Nov_16_1219,trial,7,67,right,incongruent,congruent,j,No feedback,TRUE,j,TRUE,458.00669997697696,NA
Feedback,1,1,20,f,2021.2.3,2021_Nov_16_1219,trial,7,68,left,congruent,congruent,g,No feedback,TRUE,g,TRUE,601.6125000314787,NA
Feedback,1,1,20,f,2021.2.3,2021_Nov_16_1219,trial,7,69,right,congruent,incongruent,n,No feedback,TRUE,n,TRUE,449.56010003807046,NA
Feedback,1,1,20,f,2021.2.3,2021_Nov_16_1219,trial,7,70,left,incongruent,congruent,f,No feedback,TRUE,f,TRUE,417.1199000556953,NA
Feedback,1,1,20,f,2021.2.3,2021_Nov_16_1219,trial,7,71,right,congruent,congruent,j,No feedback,TRUE,j,TRUE,624.9825999839231,NA
Feedback,1,1,20,f,2021.2.3,2021_Nov_16_1219,trial,7,72,left,congruent,incongruent,f,No feedback,TRUE,f,TRUE,528.4436999936588,NA
Feedback,1,1,20,f,2021.2.3,2021_Nov_16_1219,trial,7,73,right,incongruent,incongruent,j,No feedback,TRUE,n,FALSE,400.3719000611452,NA
Feedback,1,1,20,f,2021.2.3,2021_Nov_16_1219,trial,7,74,left,incongruent,incongruent,g,No feedback,TRUE,g,TRUE,544.1788000171073,NA
Feedback,1,1,20,f,2021.2.3,2021_Nov_16_1219,trial,7,75,right,incongruent,congruent,j,No feedback,TRUE,j,TRUE,391.9239999959243,NA
Feedback,1,1,20,f,2021.2.3,2021_Nov_16_1219,trial,7,76,left,congruent,congruent,g,No feedback,TRUE,g,TRUE,495.7474999828264,NA
Feedback,1,1,20,f,2021.2.3,2021_Nov_16_1219,trial,7,77,right,congruent,incongruent,j,No feedback,TRUE,j,TRUE,479.272799973842,NA
Feedback,1,1,20,f,2021.2.3,2021_Nov_16_1219,trial,7,78,left,incongruent,congruent,g,No feedback,TRUE,g,TRUE,415.2223999844864,NA
Feedback,1,1,20,f,2021.2.3,2021_Nov_16_1219,trial,7,79,right,congruent,incongruent,j,No feedback,TRUE,j,TRUE,526.7041000770405,NA
Feedback,1,1,20,f,2021.2.3,2021_Nov_16_1219,trial,7,80,left,incongruent,incongruent,g,No feedback,TRUE,g,TRUE,502.48450005892664,NA
Feedback,1,1,20,f,2021.2.3,2021_Nov_16_1219,trial,7,81,right,incongruent,incongruent,n,No feedback,TRUE,n,TRUE,518.1569000124,NA
Feedback,1,1,20,f,2021.2.3,2021_Nov_16_1219,trial,7,82,left,incongruent,incongruent,g,No feedback,TRUE,g,TRUE,477.8554000076838,NA
Feedback,1,1,20,f,2021.2.3,2021_Nov_16_1219,trial,7,83,right,incongruent,congruent,n,No feedback,TRUE,n,TRUE,477.65680006705225,NA
Feedback,1,1,20,f,2021.2.3,2021_Nov_16_1219,trial,7,84,left,congruent,incongruent,f,No feedback,TRUE,f,TRUE,501.2664000387301,NA
Feedback,1,1,20,f,2021.2.3,2021_Nov_16_1219,trial,7,85,right,incongruent,congruent,j,No feedback,TRUE,j,TRUE,437.36169999465346,NA
Feedback,1,1,20,f,2021.2.3,2021_Nov_16_1219,trial,7,86,left,congruent,congruent,f,No feedback,TRUE,f,TRUE,508.89400008600205,NA
Feedback,1,1,20,f,2021.2.3,2021_Nov_16_1219,trial,7,87,right,congruent,incongruent,j,No feedback,TRUE,n,FALSE,532.5973000144586,NA
Feedback,1,1,20,f,2021.2.3,2021_Nov_16_1219,trial,7,88,left,incongruent,congruent,f,No feedback,TRUE,f,TRUE,356.29249998601153,NA
Feedback,1,1,20,f,2021.2.3,2021_Nov_16_1219,trial,7,89,right,congruent,congruent,n,No feedback,TRUE,n,TRUE,404.00689997477457,NA
Feedback,1,1,20,f,2021.2.3,2021_Nov_16_1219,trial,7,90,left,congruent,congruent,f,No feedback,TRUE,f,TRUE,395.93410008819774,NA
Feedback,1,1,20,f,2021.2.3,2021_Nov_16_1219,trial,7,91,right,congruent,incongruent,n,No feedback,TRUE,n,TRUE,531.5897000255061,NA
Feedback,1,1,20,f,2021.2.3,2021_Nov_16_1219,trial,7,92,left,incongruent,incongruent,g,No feedback,TRUE,g,TRUE,587.4508999986574,NA
Feedback,1,1,20,f,2021.2.3,2021_Nov_16_1219,trial,7,93,right,incongruent,congruent,n,No feedback,TRUE,n,TRUE,387.1355000301264,NA
Feedback,1,1,20,f,2021.2.3,2021_Nov_16_1219,trial,7,94,left,congruent,congruent,f,No feedback,TRUE,f,TRUE,378.85399995138846,NA
Feedback,1,1,20,f,2021.2.3,2021_Nov_16_1219,trial,7,95,right,congruent,incongruent,j,No feedback,TRUE,g,FALSE,474.5577000430785,NA
Feedback,1,1,20,f,2021.2.3,2021_Nov_16_1219,trial,7,96,left,incongruent,incongruent,f,No feedback,TRUE,f,TRUE,538.368500012439,NA
Feedback,1,1,20,f,2021.2.3,2021_Nov_16_1219,trial,7,97,right,incongruent,incongruent,n,No feedback,TRUE,j,FALSE,329.936699999962,NA
Feedback,1,1,20,f,2021.2.3,2021_Nov_16_1219,trial,8,1,right,incongruent,congruent,j,No feedback,TRUE,j,TRUE,510.4594000731595,NA
Feedback,1,1,20,f,2021.2.3,2021_Nov_16_1219,trial,8,2,left,congruent,congruent,f,No feedback,TRUE,f,TRUE,430.04999996628635,NA
Feedback,1,1,20,f,2021.2.3,2021_Nov_16_1219,trial,8,3,right,congruent,incongruent,n,No feedback,TRUE,n,TRUE,525.8345000329427,NA
Feedback,1,1,20,f,2021.2.3,2021_Nov_16_1219,trial,8,4,left,incongruent,incongruent,g,No feedback,TRUE,g,TRUE,957.6093999785371,NA
Feedback,1,1,20,f,2021.2.3,2021_Nov_16_1219,trial,8,5,right,incongruent,congruent,n,No feedback,TRUE,n,TRUE,365.19400001270697,NA
Feedback,1,1,20,f,2021.2.3,2021_Nov_16_1219,trial,8,6,left,congruent,congruent,g,No feedback,TRUE,g,TRUE,381.0025000711903,NA
Feedback,1,1,20,f,2021.2.3,2021_Nov_16_1219,trial,8,7,right,congruent,congruent,j,No feedback,TRUE,n,FALSE,508.74130002921424,"[('j', -0.9941317999619059)]"
Feedback,1,1,20,f,2021.2.3,2021_Nov_16_1219,trial,8,8,left,congruent,incongruent,g,No feedback,TRUE,g,TRUE,532.464699994307,NA
Feedback,1,1,20,f,2021.2.3,2021_Nov_16_1219,trial,8,9,right,incongruent,congruent,j,No feedback,TRUE,j,TRUE,396.0409999708645,NA
Feedback,1,1,20,f,2021.2.3,2021_Nov_16_1219,trial,8,10,left,congruent,incongruent,g,No feedback,TRUE,f,FALSE,443.9784000278446,NA
Feedback,1,1,20,f,2021.2.3,2021_Nov_16_1219,trial,8,11,right,incongruent,congruent,j,No feedback,TRUE,j,TRUE,363.4876000578515,NA
Feedback,1,1,20,f,2021.2.3,2021_Nov_16_1219,trial,8,12,left,congruent,congruent,f,No feedback,TRUE,n,FALSE,451.2676000013016,NA
Feedback,1,1,20,f,2021.2.3,2021_Nov_16_1219,trial,8,13,right,congruent,congruent,n,No feedback,TRUE,n,TRUE,451.0461000027135,NA
Feedback,1,1,20,f,2021.2.3,2021_Nov_16_1219,trial,8,14,left,congruent,congruent,g,No feedback,TRUE,g,TRUE,402.764699945692,NA
Feedback,1,1,20,f,2021.2.3,2021_Nov_16_1219,trial,8,15,right,congruent,incongruent,j,No feedback,TRUE,j,TRUE,451.2211999972351,NA
Feedback,1,1,20,f,2021.2.3,2021_Nov_16_1219,trial,8,16,left,incongruent,congruent,g,No feedback,TRUE,g,TRUE,379.1413999861106,NA
Feedback,1,1,20,f,2021.2.3,2021_Nov_16_1219,trial,8,17,right,congruent,congruent,j,No feedback,TRUE,j,TRUE,434.67129999771714,NA
Feedback,1,1,20,f,2021.2.3,2021_Nov_16_1219,trial,8,18,left,congruent,incongruent,f,No feedback,TRUE,f,TRUE,530.3478999412619,NA
Feedback,1,1,20,f,2021.2.3,2021_Nov_16_1219,trial,8,19,right,incongruent,congruent,j,No feedback,TRUE,n,FALSE,522.1720999688841,NA
Feedback,1,1,20,f,2021.2.3,2021_Nov_16_1219,trial,8,20,left,congruent,incongruent,f,No feedback,TRUE,f,TRUE,529.7794000362044,NA
Feedback,1,1,20,f,2021.2.3,2021_Nov_16_1219,trial,8,21,right,incongruent,congruent,n,No feedback,TRUE,n,TRUE,441.62870006402954,NA
Feedback,1,1,20,f,2021.2.3,2021_Nov_16_1219,trial,8,22,left,congruent,congruent,f,No feedback,TRUE,f,TRUE,377.375300042331,NA
Feedback,1,1,20,f,2021.2.3,2021_Nov_16_1219,trial,8,23,right,congruent,incongruent,j,No feedback,TRUE,j,TRUE,457.1384000009857,NA
Feedback,1,1,20,f,2021.2.3,2021_Nov_16_1219,trial,8,24,left,incongruent,incongruent,f,No feedback,TRUE,f,TRUE,560.7971000717953,NA
Feedback,1,1,20,f,2021.2.3,2021_Nov_16_1219,trial,8,25,right,incongruent,incongruent,j,No feedback,TRUE,j,TRUE,488.7104000663385,NA
Feedback,1,1,20,f,2021.2.3,2021_Nov_16_1219,trial,8,26,left,incongruent,congruent,g,No feedback,TRUE,g,TRUE,400.4394999356009,NA
Feedback,1,1,20,f,2021.2.3,2021_Nov_16_1219,trial,8,27,right,congruent,congruent,n,No feedback,TRUE,n,TRUE,408.09470001840964,NA
Feedback,1,1,20,f,2021.2.3,2021_Nov_16_1219,trial,8,28,left,congruent,incongruent,g,No feedback,TRUE,f,FALSE,415.7932999660263,NA
Feedback,1,1,20,f,2021.2.3,2021_Nov_16_1219,trial,8,29,right,incongruent,incongruent,j,No feedback,TRUE,j,TRUE,399.5664999820292,NA
Feedback,1,1,20,f,2021.2.3,2021_Nov_16_1219,trial,8,30,left,incongruent,congruent,g,No feedback,TRUE,g,TRUE,431.16470001405105,NA
Feedback,1,1,20,f,2021.2.3,2021_Nov_16_1219,trial,8,31,right,congruent,congruent,n,No feedback,TRUE,n,TRUE,462.8432000172327,NA
Feedback,1,1,20,f,2021.2.3,2021_Nov_16_1219,trial,8,32,left,congruent,incongruent,f,No feedback,TRUE,f,TRUE,510.8534000464715,NA
Feedback,1,1,20,f,2021.2.3,2021_Nov_16_1219,trial,8,33,right,incongruent,incongruent,j,No feedback,TRUE,j,TRUE,766.4574999944307,NA
Feedback,1,1,20,f,2021.2.3,2021_Nov_16_1219,trial,8,34,left,incongruent,congruent,f,No feedback,TRUE,f,TRUE,758.2138000288976,NA
Feedback,1,1,20,f,2021.2.3,2021_Nov_16_1219,trial,8,35,right,congruent,incongruent,j,No feedback,TRUE,j,TRUE,638.0168000468984,NA
Feedback,1,1,20,f,2021.2.3,2021_Nov_16_1219,trial,8,36,left,incongruent,incongruent,g,No feedback,TRUE,g,TRUE,701.5791999874637,NA
Feedback,1,1,20,f,2021.2.3,2021_Nov_16_1219,trial,8,37,right,incongruent,congruent,n,No feedback,TRUE,n,TRUE,517.2394000110214,NA
Feedback,1,1,20,f,2021.2.3,2021_Nov_16_1219,trial,8,38,left,congruent,congruent,f,No feedback,TRUE,f,TRUE,389.2051999573596,NA
Feedback,1,1,20,f,2021.2.3,2021_Nov_16_1219,trial,8,39,right,congruent,congruent,n,No feedback,TRUE,n,TRUE,380.99179998971545,NA
Feedback,1,1,20,f,2021.2.3,2021_Nov_16_1219,trial,8,40,left,congruent,incongruent,f,No feedback,TRUE,f,TRUE,540.6429999275133,NA
Feedback,1,1,20,f,2021.2.3,2021_Nov_16_1219,trial,8,41,right,incongruent,congruent,n,No feedback,TRUE,n,TRUE,332.36889995168895,NA
Feedback,1,1,20,f,2021.2.3,2021_Nov_16_1219,trial,8,42,left,congruent,incongruent,f,No feedback,TRUE,g,FALSE,411.80639999220125,NA
Feedback,1,1,20,f,2021.2.3,2021_Nov_16_1219,trial,8,43,right,incongruent,congruent,j,No feedback,TRUE,j,TRUE,427.8188000898808,NA
Feedback,1,1,20,f,2021.2.3,2021_Nov_16_1219,trial,8,44,left,congruent,incongruent,f,No feedback,TRUE,f,TRUE,651.4304999727754,NA
Feedback,1,1,20,f,2021.2.3,2021_Nov_16_1219,trial,8,45,right,incongruent,incongruent,n,No feedback,TRUE,n,TRUE,515.1717000408096,NA
Feedback,1,1,20,f,2021.2.3,2021_Nov_16_1219,trial,8,46,left,incongruent,incongruent,f,No feedback,TRUE,f,TRUE,490.97310000797734,NA
Feedback,1,1,20,f,2021.2.3,2021_Nov_16_1219,trial,8,47,right,incongruent,incongruent,j,No feedback,TRUE,j,TRUE,531.1023000394925,NA
Feedback,1,1,20,f,2021.2.3,2021_Nov_16_1219,trial,8,48,left,incongruent,incongruent,f,No feedback,TRUE,f,TRUE,490.4107000329532,NA
Feedback,1,1,20,f,2021.2.3,2021_Nov_16_1219,trial,8,49,right,incongruent,congruent,j,No feedback,TRUE,j,TRUE,362.3104000580497,NA
Feedback,1,1,20,f,2021.2.3,2021_Nov_16_1219,trial,8,50,left,congruent,congruent,g,No feedback,TRUE,g,TRUE,601.9606000627391,NA
Feedback,1,1,20,f,2021.2.3,2021_Nov_16_1219,trial,8,51,right,congruent,congruent,j,No feedback,TRUE,j,TRUE,297.592699993402,NA
Feedback,1,1,20,f,2021.2.3,2021_Nov_16_1219,trial,8,52,left,congruent,congruent,g,No feedback,TRUE,f,FALSE,377.290499978699,NA
Feedback,1,1,20,f,2021.2.3,2021_Nov_16_1219,trial,8,53,right,congruent,incongruent,j,No feedback,TRUE,j,TRUE,553.0571000417694,NA
Feedback,1,1,20,f,2021.2.3,2021_Nov_16_1219,trial,8,54,left,incongruent,incongruent,g,No feedback,TRUE,g,TRUE,720.9942999761554,NA
Feedback,1,1,20,f,2021.2.3,2021_Nov_16_1219,trial,8,55,right,incongruent,incongruent,n,No feedback,TRUE,j,FALSE,360.64760002773255,NA
Feedback,1,1,20,f,2021.2.3,2021_Nov_16_1219,trial,8,56,left,incongruent,incongruent,g,No feedback,TRUE,f,FALSE,416.31499998038635,NA
Feedback,1,1,20,f,2021.2.3,2021_Nov_16_1219,trial,8,57,right,incongruent,incongruent,j,No feedback,TRUE,j,TRUE,536.050800001249,NA
Feedback,1,1,20,f,2021.2.3,2021_Nov_16_1219,trial,8,58,left,incongruent,congruent,f,No feedback,TRUE,f,TRUE,463.72050006175414,NA
Feedback,1,1,20,f,2021.2.3,2021_Nov_16_1219,trial,8,59,right,congruent,incongruent,n,No feedback,TRUE,n,TRUE,447.87999999243766,NA
Feedback,1,1,20,f,2021.2.3,2021_Nov_16_1219,trial,8,60,left,incongruent,congruent,g,No feedback,TRUE,g,TRUE,415.26270005852007,NA
Feedback,1,1,20,f,2021.2.3,2021_Nov_16_1219,trial,8,61,right,congruent,incongruent,n,No feedback,TRUE,j,FALSE,399.0855000447482,NA
Feedback,1,1,20,f,2021.2.3,2021_Nov_16_1219,trial,8,62,left,incongruent,incongruent,g,No feedback,TRUE,g,TRUE,518.7638999777846,NA
Feedback,1,1,20,f,2021.2.3,2021_Nov_16_1219,trial,8,63,right,incongruent,congruent,n,No feedback,TRUE,n,TRUE,454.4898000312969,NA
Feedback,1,1,20,f,2021.2.3,2021_Nov_16_1219,trial,8,64,left,congruent,incongruent,g,No feedback,TRUE,g,TRUE,566.1877000238746,NA
Feedback,1,1,20,f,2021.2.3,2021_Nov_16_1219,trial,8,65,right,incongruent,congruent,j,No feedback,TRUE,j,TRUE,422.03149996930733,NA
Feedback,1,1,20,f,2021.2.3,2021_Nov_16_1219,trial,8,66,left,congruent,congruent,f,No feedback,TRUE,f,TRUE,421.69149999972433,NA
Feedback,1,1,20,f,2021.2.3,2021_Nov_16_1219,trial,8,67,right,congruent,incongruent,n,No feedback,TRUE,n,TRUE,573.3606000430884,NA
Feedback,1,1,20,f,2021.2.3,2021_Nov_16_1219,trial,8,68,left,incongruent,incongruent,f,No feedback,TRUE,f,TRUE,509.15850000456,NA
Feedback,1,1,20,f,2021.2.3,2021_Nov_16_1219,trial,8,69,right,incongruent,incongruent,n,No feedback,TRUE,n,TRUE,412.6891999621878,NA
Feedback,1,1,20,f,2021.2.3,2021_Nov_16_1219,trial,8,70,left,incongruent,incongruent,f,No feedback,TRUE,f,TRUE,612.6991000492128,NA
Feedback,1,1,20,f,2021.2.3,2021_Nov_16_1219,trial,8,71,right,incongruent,congruent,n,No feedback,TRUE,n,TRUE,476.33590002078563,NA
Feedback,1,1,20,f,2021.2.3,2021_Nov_16_1219,trial,8,72,left,congruent,congruent,g,No feedback,TRUE,g,TRUE,420.09970004437514,NA
Feedback,1,1,20,f,2021.2.3,2021_Nov_16_1219,trial,8,73,right,congruent,incongruent,j,No feedback,TRUE,n,FALSE,459.8749000579119,NA
Feedback,1,1,20,f,2021.2.3,2021_Nov_16_1219,trial,8,74,left,incongruent,incongruent,g,No feedback,TRUE,g,TRUE,723.530400020536,NA
Feedback,1,1,20,f,2021.2.3,2021_Nov_16_1219,trial,8,75,right,incongruent,incongruent,j,No feedback,TRUE,j,TRUE,443.2512000785209,NA
Feedback,1,1,20,f,2021.2.3,2021_Nov_16_1219,trial,8,76,left,incongruent,congruent,f,No feedback,TRUE,f,TRUE,467.07040007459,NA
