experiment_name,participant,session,age,gender,psychopy_version,date,trial_block,block,trial,hand,congruencyNmin1,congruency,correct_key,feedback,made,response,correct,rt,extra_keys,Corr_1,Corr_2,Corr_3,Corr_4,Corr_5,Corr_6,Corr_7,Corr_8,Corr_9,Corr_10,Zygo_1,Zygo_2,Zygo_3,Zygo_4,Zygo_5,Zygo_6,Zygo_7,Zygo_8,Zygo_9,Zygo_10
Feedback,1,1,20,f,2021.2.3,2021_Nov_16_1219,practice,1,1,left,NA,incongruent,g,Feedback,FALSE,NA,NA,NA,"[('f', 0.07909950002795085)]",9.530925e-4,9.952567e-4,0.02236019,0.01790402,0.001777584,8.436595e-4,0.002694675,6.970377e-4,3.616207e-4,7.417819e-4,0.005097389,0.003231837,0.1752258,0.07416368,0.05573217,0.06407627,0.03926441,0.0235738,0.01625937,0.005935776
Feedback,1,1,20,f,2021.2.3,2021_Nov_16_1219,practice,1,2,right,incongruent,congruent,n,Feedback,TRUE,n,TRUE,582.0363000384532,NA,5.147285e-4,-7.660962e-4,-9.744368e-4,-2.37155e-4,-6.344968e-4,9.806966e-4,0.001114852,-3.195298e-4,-5.417466e-4,-1.429392e-4,-7.028743e-4,-1.676478e-4,-4.204558e-4,0.002091653,-0.001232548,8.56149e-4,-6.798911e-4,4.411037e-4,-0.001867749,-0.001984831
Feedback,1,1,20,f,2021.2.3,2021_Nov_16_1219,practice,1,3,left,congruent,incongruent,f,Feedback,TRUE,f,TRUE,789.6834000130184,NA,0.01360715,0.003516371,3.260851e-4,0.001039104,0.001124249,0.001227187,4.365109e-5,6.804902e-4,6.020754e-4,0.00114072,0.1102081,0.05648948,0.05951576,0.0303057,0.004515341,0.004871362,0.007827114,0.007562751,0.003200624,0.004673342
Feedback,1,1,20,f,2021.2.3,2021_Nov_16_1219,practice,1,4,right,incongruent,incongruent,j,Feedback,TRUE,j,TRUE,477.444100077264,NA,-6.309217e-4,-8.876482e-5,-6.80892e-4,-7.825855e-4,-9.519225e-4,0.00170557,8.275453e-5,-3.133502e-4,0.004624014,0.001429308,0.001042336,0.002685494,0.001307585,0.001851564,8.069682e-4,0.004776598,0.009889998,0.001744212,0.003921706,0.005113697
Feedback,1,1,20,f,2021.2.3,2021_Nov_16_1219,practice,1,5,left,incongruent,incongruent,g,Feedback,TRUE,g,TRUE,605.2893999731168,NA,7.61803e-4,4.995447e-4,-3.030114e-4,-7.964291e-4,0.006271884,0.006489061,0.001258981,6.710622e-5,-7.19822e-4,0.008406277,-7.734192e-4,0.001322702,9.166636e-5,2.928027e-4,0.02136635,0.1256963,0.02826351,0.04101473,0.05312082,0.1406789
Feedback,1,1,20,f,2021.2.3,2021_Nov_16_1219,practice,1,6,right,incongruent,incongruent,j,Feedback,TRUE,j,TRUE,564.8987999884412,NA,2.269724e-4,-1.821187e-4,1.897714e-4,2.442687e-4,-7.661891e-4,3.470783e-4,5.101776e-4,5.287076e-4,4.487513e-4,2.861004e-4,8.14558e-4,6.844881e-4,4.817052e-4,9.408193e-4,0.001793508,0.003116667,-7.747789e-4,0.001841672,9.096914e-4,0.002216929
Feedback,1,1,20,f,2021.2.3,2021_Nov_16_1219,practice,1,7,left,incongruent,incongruent,f,Feedback,TRUE,f,TRUE,572.7680000127293,NA,-0.009757486,-0.01005794,-0.008831233,-0.009197861,-0.01014095,-0.009548075,-0.01042026,-0.01042539,-0.01014322,-0.007421274,-0.0403953,-0.06662601,-0.08907953,-0.09040451,-0.0887747,-0.08765955,-0.09143277,-0.08801464,-0.08142753,-0.09003083
Feedback,1,1,20,f,2021.2.3,2021_Nov_16_1219,practice,1,8,right,incongruent,congruent,n,Feedback,TRUE,n,TRUE,380.396500055213,NA,0.01028352,0.002266954,-1.273339e-4,-0.001156676,-8.068432e-4,-8.915761e-4,-1.970045e-4,-3.830597e-4,-0.001013382,-7.064128e-4,0.07551115,0.02931369,0.03082833,0.01517395,-0.001139531,-0.00160926,2.038665e-6,-0.002424967,-0.004184152,-0.004841771
Feedback,1,1,20,f,2021.2.3,2021_Nov_16_1219,practice,1,9,left,congruent,congruent,f,Feedback,TRUE,f,TRUE,508.06340004783124,NA,0.008173903,0.00789531,0.001189085,-0.001061809,8.7549e-4,6.067706e-5,-5.06856e-5,-1.125063e-4,-3.925776e-4,0.001416981,0.06969489,0.05206396,0.04379841,0.03558153,0.02206996,0.005126074,0.00404094,0.007439607,0.005584412,0.005778011
Feedback,1,1,20,f,2021.2.3,2021_Nov_16_1219,practice,1,10,right,congruent,incongruent,j,Feedback,TRUE,j,TRUE,587.8624000470154,NA,-7.635162e-4,-2.985185e-4,-0.001217995,-0.001385939,-3.768562e-4,-4.485066e-4,-0.001106595,0.007223705,0.004146028,-0.001416655,0.003454515,0.003957116,0.001525123,-4.68106e-4,-7.630384e-4,9.105471e-4,5.043736e-4,0.08280124,0.03179793,0.04569505
Feedback,1,1,20,f,2021.2.3,2021_Nov_16_1219,practice,1,11,left,incongruent,congruent,f,Feedback,TRUE,f,TRUE,443.62700002966426,NA,6.93464e-4,0.006143889,0.007777942,0.00321359,5.059033e-4,0.001776143,-1.893649e-4,6.512539e-4,-2.822082e-4,6.909126e-4,0.003808113,0.0432305,0.07975452,0.05719411,0.0453149,0.02016113,0.004428509,0.002268314,0.005108219,0.007367193
Feedback,1,1,20,f,2021.2.3,2021_Nov_16_1219,practice,1,12,right,congruent,congruent,n,Feedback,TRUE,j,FALSE,459.3590999720618,NA,-3.176373e-4,-4.436809e-4,1.776707e-4,4.124644e-4,2.192191e-4,0.007357284,0.004025451,1.799231e-4,7.647921e-4,1.93401e-4,-4.766033e-4,0.002324587,-4.51149e-5,-5.999018e-4,8.765112e-4,0.07188527,0.02457149,0.03678948,0.028503,0.01791945
Feedback,1,1,20,f,2021.2.3,2021_Nov_16_1219,practice,1,13,left,congruent,congruent,g,Feedback,TRUE,f,FALSE,914.5824000588618,NA,-0.001094077,-1.466107e-4,0.001338439,0.001572713,-7.891296e-4,-0.001261276,8.063465e-4,3.548812e-4,0.007051356,0.003187404,5.606585e-4,0.003945926,0.001622457,0.006824716,0.001686204,0.003117269,6.063771e-4,0.004227203,0.06596831,0.05234374
Feedback,1,1,20,f,2021.2.3,2021_Nov_16_1219,practice,1,14,right,congruent,incongruent,j,Feedback,TRUE,j,TRUE,586.0347000416366,NA,9.963631e-4,0.003431374,9.120265e-4,0.001625999,4.545818e-4,8.678909e-4,0.001245825,5.688844e-4,7.674333e-4,9.385066e-4,-0.003423722,-0.004639857,-0.007463505,-0.007685157,-0.007492546,-0.005842935,-0.006365459,0.005916086,-0.005530819,-0.005518378
Feedback,1,1,20,f,2021.2.3,2021_Nov_16_1219,practice,1,15,left,incongruent,congruent,g,Feedback,TRUE,g,TRUE,617.9126000497492,NA,0.008455187,0.001895355,7.913094e-4,8.772179e-4,0.001630137,0.006491021,0.00723571,0.002081298,0.001102552,7.886132e-4,0.07916223,0.04911539,0.0471677,0.02112717,0.005900524,0.01466114,0.138116,0.0482736,0.03396424,0.04669519
Feedback,1,1,20,f,2021.2.3,2021_Nov_16_1219,practice,1,16,right,congruent,congruent,n,Feedback,TRUE,n,TRUE,649.5243000099433,NA,1.710886e-5,5.935952e-4,2.452158e-4,0.002532123,0.008600014,0.00144059,1.107997e-4,4.512304e-4,7.46273e-4,0.00160736,-4.392895e-4,0.002131165,-0.001083862,0.03783315,0.09313603,0.05828129,0.05368443,0.02732381,0.003545528,0.003668769
Feedback,1,1,20,f,2021.2.3,2021_Nov_16_1219,practice,1,17,left,congruent,incongruent,g,Feedback,TRUE,g,TRUE,593.3045000419952,NA,9.062795e-4,0.002291165,0.005859895,0.003566075,8.169299e-4,0.003523587,0.00583745,0.001276517,0.007622294,2.816916e-4,-0.001269336,4.035435e-4,4.75551e-4,0.003101229,0.002460322,0.02877382,0.04953583,0.0399588,0.05037391,0.03182021
Feedback,1,1,20,f,2021.2.3,2021_Nov_16_1219,practice,1,18,right,incongruent,congruent,j,Feedback,TRUE,j,TRUE,489.0679999953136,NA,0.003031453,0.0039115,0.001307319,0.002292508,1.696132e-4,4.38313e-4,0.002847801,7.161393e-4,0.001144051,5.3951e-4,0.1065936,0.01757003,0.023414,0.03687949,0.04716287,0.04157848,0.04769084,0.05173736,0.02688987,0.01116919
Feedback,1,1,20,f,2021.2.3,2021_Nov_16_1219,practice,1,19,left,congruent,congruent,f,Feedback,TRUE,f,TRUE,544.6216000127606,NA,1.309884e-4,0.001079644,-2.33327e-4,-1.258296e-4,0.007449594,0.001952011,7.139419e-4,0.002996041,2.325138e-4,-8.255965e-5,0.002960185,0.003285912,0.002455957,0.001561577,0.1038056,0.09277314,0.02615276,0.05290383,0.04629288,0.03505444
Feedback,1,1,20,f,2021.2.3,2021_Nov_16_1219,practice,1,20,right,congruent,incongruent,n,Feedback,TRUE,n,TRUE,480.96160002751253,NA,0.001151981,1.50535e-4,9.308117e-4,0.005519424,0.004560281,7.352375e-4,0.001369832,0.001404287,9.901728e-5,4.613057e-4,9.375522e-4,0.001741119,0.006983264,0.07760464,0.03883933,0.04900623,0.03286153,0.009263255,-0.001028071,0.004385616
Feedback,1,1,20,f,2021.2.3,2021_Nov_16_1219,practice,1,21,left,incongruent,incongruent,g,Feedback,TRUE,g,TRUE,576.2904000584967,NA,-1.69026e-4,0.005195283,0.006301224,0.002313537,0.002442331,-6.621237e-4,0.004545243,0.003250079,3.80571e-4,0.002167609,-2.218848e-4,3.87127e-4,0.09401907,0.04702973,0.02384467,0.03698814,0.03639068,0.01077143,0.009419813,0.009719188
Feedback,1,1,20,f,2021.2.3,2021_Nov_16_1219,practice,1,22,right,incongruent,incongruent,n,Feedback,TRUE,n,TRUE,575.968399993144,NA,0.00426925,0.003604595,0.001940241,3.41431e-4,0.005638715,0.004141501,0.001199856,4.10655e-5,-4.003416e-4,2.669496e-5,0.08703954,0.04865332,0.06618029,0.03911657,0.01039018,0.032052,0.005449511,6.54472e-4,0.001786307,-5.929228e-4
Feedback,1,1,20,f,2021.2.3,2021_Nov_16_1219,practice,1,23,left,incongruent,incongruent,f,Feedback,TRUE,f,TRUE,535.6448999955319,NA,-0.003277929,-0.006401794,-0.006369649,-0.006295331,-0.004635479,-0.00621577,-0.005026077,-0.001740891,-0.005216604,-0.005751485,-0.0706652,-0.0419342,-0.02343917,-0.0331698,0.01334896,-0.03411005,-0.05383798,0.0197526,-0.0492325,-0.07380788
Feedback,1,1,20,f,2021.2.3,2021_Nov_16_1219,practice,1,24,right,incongruent,incongruent,n,Feedback,TRUE,n,TRUE,463.29260006314144,NA,0.005944796,5.184212e-4,0.001841429,0.002348445,-0.002104379,4.11327e-4,-0.001567951,-0.001282215,-0.002074656,-0.002565841,0.06685562,0.02342762,0.0243011,0.01340933,0.005843657,0.02970807,0.01240554,6.90612e-4,5.019372e-4,-2.19245e-4
Feedback,1,1,20,f,2021.2.3,2021_Nov_16_1219,trial,1,1,right,incongruent,congruent,j,Feedback,TRUE,j,TRUE,519.7193000349218,NA,9.530925e-4,9.952567e-4,0.02236019,0.01790402,0.001777584,8.436595e-4,0.002694675,6.970377e-4,3.616207e-4,7.417819e-4,0.005097389,0.003231837,0.1752258,0.07416368,0.05573217,0.06407627,0.03926441,0.0235738,0.01625937,0.005935776
Feedback,1,1,20,f,2021.2.3,2021_Nov_16_1219,trial,1,2,left,congruent,congruent,g,Feedback,TRUE,g,TRUE,615.4222000623122,NA,5.147285e-4,-7.660962e-4,-9.744368e-4,-2.37155e-4,-6.344968e-4,9.806966e-4,0.001114852,-3.195298e-4,-5.417466e-4,-1.429392e-4,-7.028743e-4,-1.676478e-4,-4.204558e-4,0.002091653,-0.001232548,8.56149e-4,-6.798911e-4,4.411037e-4,-0.001867749,-0.001984831
Feedback,1,1,20,f,2021.2.3,2021_Nov_16_1219,trial,1,3,right,congruent,congruent,n,Feedback,TRUE,n,TRUE,743.2154000853186,NA,0.01360715,0.003516371,3.260851e-4,0.001039104,0.001124249,0.001227187,4.365109e-5,6.804902e-4,6.020754e-4,0.00114072,0.1102081,0.05648948,0.05951576,0.0303057,0.004515341,0.004871362,0.007827114,0.007562751,0.003200624,0.004673342
Feedback,1,1,20,f,2021.2.3,2021_Nov_16_1219,trial,1,4,left,congruent,incongruent,g,Feedback,TRUE,f,FALSE,574.9610999482684,NA,-6.309217e-4,-8.876482e-5,-6.80892e-4,-7.825855e-4,-9.519225e-4,0.00170557,8.275453e-5,-3.133502e-4,0.004624014,0.001429308,0.001042336,0.002685494,0.001307585,0.001851564,8.069682e-4,0.004776598,0.009889998,0.001744212,0.003921706,0.005113697
Feedback,1,1,20,f,2021.2.3,2021_Nov_16_1219,trial,1,5,right,incongruent,incongruent,n,Feedback,TRUE,n,TRUE,494.53360005281866,NA,7.61803e-4,4.995447e-4,-3.030114e-4,-7.964291e-4,0.006271884,0.006489061,0.001258981,6.710622e-5,-7.19822e-4,0.008406277,-7.734192e-4,0.001322702,9.166636e-5,2.928027e-4,0.02136635,0.1256963,0.02826351,0.04101473,0.05312082,0.1406789
Feedback,1,1,20,f,2021.2.3,2021_Nov_16_1219,trial,1,6,left,incongruent,congruent,g,Feedback,TRUE,g,TRUE,430.4052999941632,NA,2.269724e-4,-1.821187e-4,1.897714e-4,2.442687e-4,-7.661891e-4,3.470783e-4,5.101776e-4,5.287076e-4,4.487513e-4,2.861004e-4,8.14558e-4,6.844881e-4,4.817052e-4,9.408193e-4,0.001793508,0.003116667,-7.747789e-4,0.001841672,9.096914e-4,0.002216929
Feedback,1,1,20,f,2021.2.3,2021_Nov_16_1219,trial,1,7,right,congruent,congruent,j,Feedback,TRUE,j,TRUE,542.0830000075512,NA,-0.009757486,-0.01005794,-0.008831233,-0.009197861,-0.01014095,-0.009548075,-0.01042026,-0.01042539,-0.01014322,-0.007421274,-0.0403953,-0.06662601,-0.08907953,-0.09040451,-0.0887747,-0.08765955,-0.09143277,-0.08801464,-0.08142753,-0.09003083
Feedback,1,1,20,f,2021.2.3,2021_Nov_16_1219,trial,1,8,left,congruent,incongruent,g,Feedback,TRUE,g,TRUE,485.87230005068704,NA,0.01028352,0.002266954,-1.273339e-4,-0.001156676,-8.068432e-4,-8.915761e-4,-1.970045e-4,-3.830597e-4,-0.001013382,-7.064128e-4,0.07551115,0.02931369,0.03082833,0.01517395,-0.001139531,-0.00160926,2.038665e-6,-0.002424967,-0.004184152,-0.004841771
Feedback,1,1,20,f,2021.2.3,2021_Nov_16_1219,trial,1,9,right,incongruent,congruent,n,Feedback,TRUE,n,TRUE,549.693200038746,NA,0.008173903,0.00789531,0.001189085,-0.001061809,8.7549e-4,6.067706e-5,-5.06856e-5,-1.125063e-4,-3.925776e-4,0.001416981,0.06969489,0.05206396,0.04379841,0.03558153,0.02206996,0.005126074,0.00404094,0.007439607,0.005584412,0.005778011
Feedback,1,1,20,f,2021.2.3,2021_Nov_16_1219,trial,1,10,left,congruent,congruent,g,Feedback,TRUE,g,TRUE,653.1625000643544,NA,-7.635162e-4,-2.985185e-4,-0.001217995,-0.001385939,-3.768562e-4,-4.485066e-4,-0.001106595,0.007223705,0.004146028,-0.001416655,0.003454515,0.003957116,0.001525123,-4.68106e-4,-7.630384e-4,9.105471e-4,5.043736e-4,0.08280124,0.03179793,0.04569505
Feedback,1,1,20,f,2021.2.3,2021_Nov_16_1219,trial,1,11,right,congruent,incongruent,n,Feedback,TRUE,n,TRUE,773.0138000333682,NA,6.93464e-4,0.006143889,0.007777942,0.00321359,5.059033e-4,0.001776143,-1.893649e-4,6.512539e-4,-2.822082e-4,6.909126e-4,0.003808113,0.0432305,0.07975452,0.05719411,0.0453149,0.02016113,0.004428509,0.002268314,0.005108219,0.007367193
Feedback,1,1,20,f,2021.2.3,2021_Nov_16_1219,trial,1,12,left,incongruent,congruent,f,Feedback,TRUE,g,FALSE,508.84980004047975,NA,-3.176373e-4,-4.436809e-4,1.776707e-4,4.124644e-4,2.192191e-4,0.007357284,0.004025451,1.799231e-4,7.647921e-4,1.93401e-4,-4.766033e-4,0.002324587,-4.51149e-5,-5.999018e-4,8.765112e-4,0.07188527,0.02457149,0.03678948,0.028503,0.01791945
Feedback,1,1,20,f,2021.2.3,2021_Nov_16_1219,trial,1,13,right,congruent,incongruent,j,Feedback,TRUE,j,TRUE,548.5372000257485,NA,-0.001094077,-1.466107e-4,0.001338439,0.001572713,-7.891296e-4,-0.001261276,8.063465e-4,3.548812e-4,0.007051356,0.003187404,5.606585e-4,0.003945926,0.001622457,0.006824716,0.001686204,0.003117269,6.063771e-4,0.004227203,0.06596831,0.05234374
Feedback,1,1,20,f,2021.2.3,2021_Nov_16_1219,trial,1,14,left,incongruent,incongruent,f,Feedback,TRUE,f,TRUE,556.2873000162654,NA,9.963631e-4,0.003431374,9.120265e-4,0.001625999,4.545818e-4,8.678909e-4,0.001245825,5.688844e-4,7.674333e-4,9.385066e-4,-0.003423722,-0.004639857,-0.007463505,-0.007685157,-0.007492546,-0.005842935,-0.006365459,0.005916086,-0.005530819,-0.005518378
Feedback,1,1,20,f,2021.2.3,2021_Nov_16_1219,trial,1,15,right,incongruent,incongruent,j,Feedback,TRUE,j,TRUE,483.89069997938327,NA,0.008455187,0.001895355,7.913094e-4,8.772179e-4,0.001630137,0.006491021,0.00723571,0.002081298,0.001102552,7.886132e-4,0.07916223,0.04911539,0.0471677,0.02112717,0.005900524,0.01466114,0.138116,0.0482736,0.03396424,0.04669519
Feedback,1,1,20,f,2021.2.3,2021_Nov_16_1219,trial,1,16,left,incongruent,incongruent,f,Feedback,TRUE,f,TRUE,547.7875000797212,NA,1.710886e-5,5.935952e-4,2.452158e-4,0.002532123,0.008600014,0.00144059,1.107997e-4,4.512304e-4,7.46273e-4,0.00160736,-4.392895e-4,0.002131165,-0.001083862,0.03783315,0.09313603,0.05828129,0.05368443,0.02732381,0.003545528,0.003668769
Feedback,1,1,20,f,2021.2.3,2021_Nov_16_1219,trial,1,17,right,incongruent,incongruent,n,Feedback,TRUE,n,TRUE,507.4396000127308,NA,9.062795e-4,0.002291165,0.005859895,0.003566075,8.169299e-4,0.003523587,0.00583745,0.001276517,0.007622294,2.816916e-4,-0.001269336,4.035435e-4,4.75551e-4,0.003101229,0.002460322,0.02877382,0.04953583,0.0399588,0.05037391,0.03182021
Feedback,1,1,20,f,2021.2.3,2021_Nov_16_1219,trial,1,18,left,incongruent,incongruent,g,Feedback,TRUE,f,FALSE,555.3094000206329,NA,0.003031453,0.0039115,0.001307319,0.002292508,1.696132e-4,4.38313e-4,0.002847801,7.161393e-4,0.001144051,5.3951e-4,0.1065936,0.01757003,0.023414,0.03687949,0.04716287,0.04157848,0.04769084,0.05173736,0.02688987,0.01116919
Feedback,1,1,20,f,2021.2.3,2021_Nov_16_1219,trial,1,19,right,incongruent,incongruent,n,Feedback,TRUE,n,TRUE,498.80760005908064,NA,1.309884e-4,0.001079644,-2.33327e-4,-1.258296e-4,0.007449594,0.001952011,7.139419e-4,0.002996041,2.325138e-4,-8.255965e-5,0.002960185,0.003285912,0.002455957,0.001561577,0.1038056,0.09277314,0.02615276,0.05290383,0.04629288,0.03505444
Feedback,1,1,20,f,2021.2.3,2021_Nov_16_1219,trial,1,20,left,incongruent,congruent,f,Feedback,TRUE,f,TRUE,554.8688999842852,NA,0.001151981,1.50535e-4,9.308117e-4,0.005519424,0.004560281,7.352375e-4,0.001369832,0.001404287,9.901728e-5,4.613057e-4,9.375522e-4,0.001741119,0.006983264,0.07760464,0.03883933,0.04900623,0.03286153,0.009263255,-0.001028071,0.004385616
Feedback,1,1,20,f,2021.2.3,2021_Nov_16_1219,trial,1,21,right,congruent,congruent,j,Feedback,TRUE,j,TRUE,450.5216000252401,NA,-1.69026e-4,0.005195283,0.006301224,0.002313537,0.002442331,-6.621237e-4,0.004545243,0.003250079,3.80571e-4,0.002167609,-2.218848e-4,3.87127e-4,0.09401907,0.04702973,0.02384467,0.03698814,0.03639068,0.01077143,0.009419813,0.009719188
Feedback,1,1,20,f,2021.2.3,2021_Nov_16_1219,trial,1,22,left,congruent,incongruent,g,Feedback,TRUE,g,TRUE,554.1750999982467,NA,0.00426925,0.003604595,0.001940241,3.41431e-4,0.005638715,0.004141501,0.001199856,4.10655e-5,-4.003416e-4,2.669496e-5,0.08703954,0.04865332,0.06618029,0.03911657,0.01039018,0.032052,0.005449511,6.54472e-4,0.001786307,-5.929228e-4
Feedback,1,1,20,f,2021.2.3,2021_Nov_16_1219,trial,1,23,right,incongruent,congruent,n,Feedback,TRUE,n,TRUE,593.7718000495806,NA,-0.003277929,-0.006401794,-0.006369649,-0.006295331,-0.004635479,-0.00621577,-0.005026077,-0.001740891,-0.005216604,-0.005751485,-0.0706652,-0.0419342,-0.02343917,-0.0331698,0.01334896,-0.03411005,-0.05383798,0.0197526,-0.0492325,-0.07380788
Feedback,1,1,20,f,2021.2.3,2021_Nov_16_1219,trial,1,24,left,congruent,incongruent,g,Feedback,TRUE,g,TRUE,897.6565999910235,NA,0.005944796,5.184212e-4,0.001841429,0.002348445,-0.002104379,4.11327e-4,-0.001567951,-0.001282215,-0.002074656,-0.002565841,0.06685562,0.02342762,0.0243011,0.01340933,0.005843657,0.02970807,0.01240554,6.90612e-4,5.019372e-4,-2.19245e-4
Feedback,1,1,20,f,2021.2.3,2021_Nov_16_1219,trial,1,25,right,incongruent,congruent,j,Feedback,TRUE,j,TRUE,529.2966999695636,NA,-0.001647298,-0.001886636,-0.001732729,-0.001953238,-0.001738811,-0.002079131,-0.001759307,0.002712924,2.466873e-4,-0.001357714,0.003509433,0.002749067,0.004260058,0.001160986,0.00114723,0.004874767,0.003419816,0.005836376,0.002383553,-3.285245e-4
Feedback,1,1,20,f,2021.2.3,2021_Nov_16_1219,trial,1,26,left,congruent,congruent,f,Feedback,TRUE,f,TRUE,593.0798999615945,NA,0.004940131,2.468324e-4,-8.994658e-4,-0.001138564,-7.766159e-4,0.004329999,0.001334378,0.004098743,4.687125e-4,0.002834772,0.06990744,0.08581656,0.04877512,0.01837397,-0.001316941,0.01230129,0.0570665,0.0220018,0.04119329,0.01461277
Feedback,1,1,20,f,2021.2.3,2021_Nov_16_1219,trial,1,27,right,congruent,congruent,n,Feedback,TRUE,n,TRUE,424.77419995702803,NA,-0.003942452,-0.005448929,-0.00386857,-0.005574994,-0.004405123,-0.001109321,0.008716597,-0.004894227,-0.004680459,-0.004160335,-0.1220024,-0.09592367,-0.0917129,-0.1094068,-0.1126503,-0.1069931,0.09113054,-0.06967951,-0.01105475,-0.03133336
Feedback,1,1,20,f,2021.2.3,2021_Nov_16_1219,trial,1,28,left,congruent,congruent,f,Feedback,FALSE,NA,NA,NA,NA,8.961605e-4,0.002571283,0.008110738,0.002616928,-5.084747e-4,0.00175196,4.349959e-4,3.711132e-4,0.001694112,-2.481206e-5,-0.01031732,-0.003529169,0.04556271,0.006408829,0.01648495,0.00148892,0.003646713,-0.002429653,-0.01761514,-0.01941818
Feedback,1,1,20,f,2021.2.3,2021_Nov_16_1219,trial,1,29,right,congruent,incongruent,n,Feedback,FALSE,NA,NA,NA,NA,0.006024772,0.002922927,0.001374481,0.001879225,-9.554557e-4,0.003159533,0.006568425,0.001109001,-5.33584e-4,0.001566451,0.1276923,0.1371855,0.06056323,0.07497123,0.05080602,0.0213821,0.07287358,0.06999958,0.009329434,0.01785386
Feedback,1,1,20,f,2021.2.3,2021_Nov_16_1219,trial,1,30,left,incongruent,congruent,g,Feedback,TRUE,g,TRUE,520.0680999550968,NA,-6.155872e-4,-6.712545e-4,0.006576897,0.007192216,7.888917e-4,-7.389123e-4,-4.557802e-4,-4.264647e-4,-0.00148873,-9.41704e-4,-0.002935114,-0.005923847,0.07511516,0.03364696,0.0430811,0.02715463,0.004930936,-0.005791361,-0.003328525,-0.001334133
Feedback,1,1,20,f,2021.2.3,2021_Nov_16_1219,trial,1,31,right,congruent,incongruent,n,Feedback,TRUE,n,TRUE,591.7017000028864,NA,3.181398e-5,-4.334212e-4,6.175553e-4,3.266567e-4,-2.212573e-4,1.904382e-4,-1.517388e-4,2.264755e-4,7.116913e-4,-5.135417e-4,0.00264954,-2.593875e-4,0.001002692,0.00469625,0.003609108,0.003132837,0.001429104,0.001166691,0.001501455,0.004106558
Feedback,1,1,20,f,2021.2.3,2021_Nov_16_1219,trial,1,32,left,incongruent,incongruent,f,Feedback,TRUE,f,TRUE,543.4941999847069,NA,6.797828e-4,-7.22471e-4,-3.298477e-4,-5.295849e-5,5.226503e-4,0.006517855,0.002549825,2.580129e-4,4.280906e-4,7.17089e-4,0.003969785,0.003591476,0.003878112,9.876951e-4,0.001142926,0.0663984,0.1146712,0.01932571,0.04711038,0.0588849
Feedback,1,1,20,f,2021.2.3,2021_Nov_16_1219,trial,1,33,right,incongruent,incongruent,n,Feedback,TRUE,n,TRUE,631.1744000413453,NA,1.352823e-4,0.007368454,0.009704794,0.003530946,0.004494912,0.00124897,0.002443802,0.001586549,0.001726488,4.886116e-4,3.050151e-4,0.008566493,0.1582837,0.04079325,0.05880046,0.04242657,0.04042726,0.01465874,0.0105704,0.003649094
Feedback,1,1,20,f,2021.2.3,2021_Nov_16_1219,trial,1,34,left,incongruent,congruent,f,Feedback,TRUE,f,TRUE,446.8495000619439,NA,-0.003652669,-0.003245058,-5.152021e-4,-0.003547241,-0.002956151,-0.002169379,-0.003208707,-0.0022109,-0.003008306,0.00246589,-0.004292356,0.01604967,-0.001551564,0.01884875,0.002635184,0.009964928,0.002323206,0.001263937,0.008268442,0.02163819
Feedback,1,1,20,f,2021.2.3,2021_Nov_16_1219,trial,1,35,right,congruent,incongruent,j,Feedback,TRUE,j,TRUE,478.5369000164792,NA,-8.502372e-4,4.865101e-4,-1.10874e-4,4.929572e-4,-5.931021e-4,4.180053e-4,0.01249235,0.009733509,0.01079355,-3.341071e-4,-0.01861881,-0.0120617,-0.01443078,-0.01400333,-3.574602e-4,-0.0115627,-0.001875333,-0.004908348,0.03580414,0.004930532
Feedback,1,1,20,f,2021.2.3,2021_Nov_16_1219,trial,1,36,left,incongruent,incongruent,f,Feedback,TRUE,f,TRUE,550.5159999593161,NA,-3.741262e-4,-6.937473e-4,0.002669973,-4.858195e-4,0.002512186,0.001143637,-7.036095e-5,4.295206e-4,-3.619262e-4,3.781361e-4,0.002673708,-0.007574007,-0.02130451,-0.01731583,-0.01767199,-0.01566868,-0.01799565,-0.02505336,-0.01907698,-0.01704016
Feedback,1,1,20,f,2021.2.3,2021_Nov_16_1219,trial,1,37,right,incongruent,incongruent,j,Feedback,TRUE,j,TRUE,502.11729999864474,NA,0.007535288,0.002402084,0.002915088,0.004463049,0.003534788,6.56643e-4,0.001010946,0.001574844,8.970147e-4,5.697578e-4,0.03411743,0.02666778,0.01133751,0.03796197,0.02522485,0.0492176,0.01949857,3.234614e-4,-0.003983239,-0.005084281
Feedback,1,1,20,f,2021.2.3,2021_Nov_16_1219,trial,1,38,left,incongruent,congruent,g,Feedback,TRUE,g,TRUE,557.7991000027396,NA,0.004625167,0.00610809,-0.003273829,-0.005079383,-0.004727192,-0.005330238,-0.005643465,-0.004315082,-0.00386593,-0.003278115,0.06528232,0.04470072,0.04733368,0.0257468,0.006774565,-0.003791139,-1.229802e-4,-0.00190803,-3.876584e-4,0.01629742
Feedback,1,1,20,f,2021.2.3,2021_Nov_16_1219,trial,1,39,right,congruent,congruent,j,Feedback,TRUE,j,TRUE,413.4482000372375,NA,5.842678e-4,-1.300168e-4,-2.736701e-4,0.005694411,0.002790104,-2.548774e-5,-9.482554e-4,-0.00143509,1.151022e-4,-0.001175443,-6.087143e-4,0.004882171,0.0029546110000000002,0.07422916,0.06231801,0.07724433,0.06054242,0.02684111,0.01001049,0.01105832
Feedback,1,1,20,f,2021.2.3,2021_Nov_16_1219,trial,1,40,left,congruent,incongruent,f,Feedback,TRUE,f,TRUE,437.3512999736704,NA,7.50266e-4,9.566869e-4,0.001250261,0.004509271,0.004617487,5.898192e-4,-5.488198e-4,-8.851697e-4,-4.451324e-4,-3.765596e-4,0.002489779,-0.002384502,-8.777957e-4,0.06169562,0.02530171,0.03564244,0.02290932,0.008192735,-0.001982043,-0.001303369
Feedback,1,1,20,f,2021.2.3,2021_Nov_16_1219,trial,1,41,right,incongruent,congruent,n,Feedback,TRUE,n,TRUE,509.120500064455,NA,0.006608859,0.004790799,0.003489573,7.797782e-4,0.001367729,0.002918206,2.502629e-4,5.976097e-4,0.002548012,9.870438e-4,0.001486775,0.09462804,0.02299214,0.01255056,0.02808069,0.04321845,0.03193286,0.009401546,0.004578079,0.004522637
Feedback,1,1,20,f,2021.2.3,2021_Nov_16_1219,trial,1,42,left,congruent,congruent,f,Feedback,TRUE,f,TRUE,436.8071000208147,NA,-0.001611699,-0.001223057,-0.001126047,-4.741088e-4,5.61049e-4,3.148271e-4,-0.001103682,-7.287303e-4,-7.350463e-4,-0.001420822,0.004112693,0.006056016,0.003840067,0.005551468,0.005872378,0.006655317,0.005538577,0.004968452,0.002706286,0.002637357
Feedback,1,1,20,f,2021.2.3,2021_Nov_16_1219,trial,1,43,right,congruent,incongruent,j,Feedback,TRUE,j,TRUE,532.6346000656486,NA,2.01162e-4,2.190066e-4,3.851692e-4,-2.445704e-4,4.348927e-4,5.184361e-4,0.001819251,4.821436e-4,-0.00101503,-4.339821e-4,-0.003871628,-0.003925754,-0.002200375,-0.004867462,-0.004439158,-0.003275949,-0.004259526,-0.001012237,-0.001824542,-0.004182529
Feedback,1,1,20,f,2021.2.3,2021_Nov_16_1219,trial,1,44,left,incongruent,congruent,f,Feedback,TRUE,f,TRUE,484.5163999707438,NA,1.795117e-4,-5.346027e-4,-5.131944e-4,0.00227059,0.005685038,0.002355863,-7.077715e-4,3.050424e-4,4.309134e-4,3.214488e-4,9.092935e-4,0.004262214,0.002941,0.0275155,0.1008489,0.05387634,0.08489992,0.04738711,0.01219442,0.003511718
Feedback,1,1,20,f,2021.2.3,2021_Nov_16_1219,trial,1,45,right,congruent,congruent,j,Feedback,TRUE,j,TRUE,508.062700100709,NA,0.001211746,7.236968e-4,0.001957223,0.003089108,0.00166596,0.005800313,0.001690094,0.001108463,4.977551e-4,0.01079699,0.002508081,0.002119484,0.003686381,0.06518716,0.07015011,0.02002394,0.04229559,0.03424087,0.02251589,0.0893507
Feedback,1,1,20,f,2021.2.3,2021_Nov_16_1219,trial,1,46,left,congruent,congruent,g,Feedback,TRUE,g,TRUE,427.6701000635512,NA,-7.039919e-4,-3.258772e-4,-4.920943e-4,0.002698642,0.003112947,-4.063398e-4,8.058397e-4,-0.001049259,2.438319e-4,-0.001333041,-0.001830055,7.0816e-4,0.005252009,0.08204372,0.03628672,0.04828783,0.03261323,0.01275631,0.002322973,0.002594405
Feedback,1,1,20,f,2021.2.3,2021_Nov_16_1219,trial,1,47,right,congruent,incongruent,j,Feedback,TRUE,j,TRUE,459.46350001031533,NA,-0.003747562,-8.070199e-4,-0.005298511,-0.004130427,-0.004177515,-0.006235376,-0.003411317,-0.003406884,-0.003409302,-0.00371701,0.07925028,0.005106602,0.01276118,0.02864428,0.004827044,0.02106293,0.03272535,0.03706484,0.008683551,0.001016529
Feedback,1,1,20,f,2021.2.3,2021_Nov_16_1219,trial,1,48,left,incongruent,congruent,g,Feedback,TRUE,g,TRUE,443.17629997385666,NA,0.001177192,4.27454e-4,8.023051e-4,1.654858e-4,6.300039e-4,0.001079018,0.001673218,-8.981675e-6,7.306091e-4,9.608853e-4,-7.31875e-4,-7.70105e-4,0.002018112,-5.848061e-4,5.372968e-4,-3.596176e-4,-7.029253e-4,2.878411e-4,0.01185187,0.02819207
Feedback,1,1,20,f,2021.2.3,2021_Nov_16_1219,trial,1,49,right,congruent,congruent,j,Feedback,TRUE,j,TRUE,418.92840003129095,NA,4.913139e-4,8.975016e-4,2.361914e-4,7.456839e-4,0.003453256,0.006021068,0.003730086,0.002519862,0.005609525,0.004156804,0.00391412,0.003281026,0.002481902,0.002159545,0.01997395,0.08872689,0.04333723,0.05300068,0.03612511,0.01040842
Feedback,1,1,20,f,2021.2.3,2021_Nov_16_1219,trial,1,50,left,congruent,congruent,g,Feedback,TRUE,g,TRUE,426.66310002096,NA,1.428532e-5,-2.994323e-4,-7.011689e-4,2.497861e-4,-2.120545e-4,1.042697e-4,4.293851e-4,8.732863e-4,-5.985256e-4,-9.149639e-5,-0.001769716,-0.002433046,-0.002240187,-0.001880866,-0.002374332,-0.002429353,-0.001836201,-0.002674765,-0.001254287,-0.002413766
Feedback,1,1,20,f,2021.2.3,2021_Nov_16_1219,trial,1,51,right,congruent,incongruent,j,Feedback,TRUE,j,TRUE,482.27560002123937,NA,-0.002925715,-0.002905768,-0.0031931,-0.002669409,-0.003477092,-0.002838411,-0.002388113,-0.002761258,-0.002279226,-0.002472998,-0.001972643,-8.165459e-4,-8.736802e-4,-9.317128e-4,1.173299e-4,7.627038e-4,-0.00102845,-8.200633e-4,5.227141e-5,5.491152e-4
Feedback,1,1,20,f,2021.2.3,2021_Nov_16_1219,trial,1,52,left,incongruent,congruent,g,Feedback,TRUE,g,TRUE,674.1072000586428,NA,0.008266337,0.006518027,6.195402e-4,0.004487469,-4.542666e-5,-5.21027e-4,0.004291191,9.644858e-4,-9.979412e-4,4.750506e-4,0.06177359,0.02062252,0.03447445,0.01650234,0.003303658,-0.002401244,-0.001361985,-0.001478591,0.002004593,-0.001963262
Feedback,1,1,20,f,2021.2.3,2021_Nov_16_1219,trial,1,53,right,congruent,incongruent,j,Feedback,TRUE,j,TRUE,449.8826000490226,NA,1.183129e-5,0.001493495,0.01073314,4.820493e-4,4.443841e-4,8.129487e-4,-2.337985e-4,-3.703081e-4,1.561351e-4,0.001671108,-0.001849212,-0.001979922,-0.001489077,-8.705184e-4,-6.952181e-4,-8.9712e-4,2.745367e-4,-4.774027e-4,-0.001068628,0.002411117
Feedback,1,1,20,f,2021.2.3,2021_Nov_16_1219,trial,1,54,left,incongruent,incongruent,g,Feedback,TRUE,g,TRUE,553.6024000030009,NA,8.191895e-4,4.309362e-4,0.001437116,0.001889977,5.235479e-4,0.005411365,7.68065e-4,0.001138411,8.1073e-4,-2.216042e-4,0.001681206,0.003051474,0.001718424,0.004338116,0.001394639,0.001158666,0.001463683,0.004103117,0.002667763,0.001212112
Feedback,1,1,20,f,2021.2.3,2021_Nov_16_1219,trial,1,55,right,incongruent,congruent,j,Feedback,TRUE,j,TRUE,657.3562999838032,NA,0.005677562,0.007183907,0.009908369,0.004645973,0.002091362,7.340633e-4,7.710219e-4,-1.287353e-4,0.004831947,-1.837939e-4,0.07813015,0.02945436,0.1531738,0.09966656,0.0178345,0.04584698,0.05243325,0.03261288,0.02693652,0.01942448
Feedback,1,1,20,f,2021.2.3,2021_Nov_16_1219,trial,1,56,left,congruent,incongruent,f,Feedback,TRUE,f,TRUE,481.275200028904,NA,0.001026011,5.463788e-4,7.378287e-5,0.002912345,0.004952936,0.001200358,7.848039e-4,6.860562e-4,0.001331075,6.073329e-4,0.002324931,0.004414308,0.001906359,0.0028884650000000002,0.02156227,0.002764575,0.005838002,0.009362226,0.01054389,0.002583236
Feedback,1,1,20,f,2021.2.3,2021_Nov_16_1219,trial,1,57,right,incongruent,congruent,n,Feedback,TRUE,n,TRUE,584.6960000344552,NA,-2.449383e-4,-0.002278191,-0.001981434,-0.002470424,7.41465e-4,-0.002381979,8.626226e-4,-0.001801352,-0.001964754,-0.002010295,0.001700819,0.004085451,0.001141889,0.001335725,0.004216932,0.00566759,0.005635011,0.005385133,0.001745687,0.002893067
Feedback,1,1,20,f,2021.2.3,2021_Nov_16_1219,trial,1,58,left,congruent,congruent,g,Feedback,TRUE,g,TRUE,440.54100004723296,NA,-1.271833e-4,-5.0298e-4,0.001025528,4.205173e-4,5.681184e-5,0.001916962,0.01089667,0.002957617,1.163979e-4,5.062842e-4,-0.002177173,-0.00218442,-1.000375e-4,0.001322611,-0.001734402,-0.001478985,-0.001062608,-0.003729359,-0.001424894,-0.002232478
Feedback,1,1,20,f,2021.2.3,2021_Nov_16_1219,trial,1,59,right,congruent,incongruent,n,Feedback,TRUE,n,TRUE,536.1408999888229,NA,-3.182127e-4,6.369208e-4,7.026531e-4,-6.422447e-5,-3.75455e-4,-4.238219e-4,-0.00101361,-5.647577e-4,0.001175748,-5.232422e-4,-5.175381e-4,-3.009941e-5,-5.369943e-4,7.398501e-4,-0.001099253,-9.034586e-4,-0.001821753,-8.798218e-4,-0.001457289,-0.001466653
Feedback,1,1,20,f,2021.2.3,2021_Nov_16_1219,trial,1,60,left,incongruent,incongruent,g,Feedback,TRUE,g,TRUE,488.03249996854015,NA,2.588911e-4,-2.74109e-4,-1.68679e-4,-1.366623e-4,-1.326881e-4,0.007808448,0.006524942,5.542024e-4,0.002260125,-5.941812e-4,9.579433e-4,0.001286331,-0.001450072,-0.001613813,0.001481277,0.06309084,0.02699967,0.03549784,0.03261235,0.01420866
Feedback,1,1,20,f,2021.2.3,2021_Nov_16_1219,trial,1,61,right,incongruent,congruent,j,Feedback,TRUE,j,TRUE,455.902400019113,NA,-0.001160369,-0.001069946,0.001825082,-4.339404e-5,5.684593e-4,-0.001432552,-0.001992576,-0.001499174,-0.001564279,-0.001404733,0.001214076,2.776277e-4,8.166013e-4,2.728347e-4,-7.065949e-4,0.001531279,0.001607677,-2.304101e-4,0.001045149,-0.001555328
Feedback,1,1,20,f,2021.2.3,2021_Nov_16_1219,trial,1,62,left,congruent,incongruent,g,Feedback,TRUE,g,TRUE,535.5190999689512,NA,1.405075e-4,-9.657303e-5,-4.956019e-4,5.437038e-4,8.026604e-4,-7.688417e-4,-3.602817e-4,-4.898286e-4,-5.419012e-4,2.515316e-5,7.978869e-4,0.001522186,0.00445353,-0.001095942,2.153192e-4,5.733187e-4,7.576495e-5,3.240502e-4,7.779226e-4,0.001354821
Feedback,1,1,20,f,2021.2.3,2021_Nov_16_1219,trial,1,63,right,incongruent,incongruent,j,Feedback,TRUE,j,TRUE,495.0463999994099,NA,9.412207e-4,0.003311421,2.323489e-4,-8.449103e-4,-5.856936e-4,-0.001033494,-4.457671e-4,-0.001471217,-0.001130162,-5.853109e-4,0.0030494850000000002,0.004941185,0.006428402,0.002563702,8.737412e-4,6.074258e-4,0.001629916,5.873912e-4,7.777084e-4,-0.001000868
Feedback,1,1,20,f,2021.2.3,2021_Nov_16_1219,trial,1,64,left,incongruent,congruent,f,Feedback,TRUE,f,TRUE,590.9733000444251,NA,2.027599e-4,9.370637e-4,0.00113208,1.258608e-4,7.089574e-4,3.322798e-4,0.001211758,6.60683e-4,8.031095e-4,9.756046e-4,-9.997434e-4,-1.972658e-4,0.002696903,3.686077e-4,-8.690997e-4,2.45472e-4,-6.178294e-4,-8.046215e-4,-3.510639e-4,4.013395e-5
Feedback,1,1,20,f,2021.2.3,2021_Nov_16_1219,trial,1,65,right,congruent,congruent,j,Feedback,TRUE,j,TRUE,406.6274000797421,"[('j', -0.9362763999961317)]",-8.383507e-4,-3.865564e-4,-0.001269608,7.857708e-5,-9.691585e-4,-4.420462e-4,1.705538e-4,-0.001488577,-3.381495e-4,-6.210979e-4,9.690034e-4,0.002679858,0.001203775,0.002421227,0.002517041,-9.526378e-4,0.001471229,5.35754e-4,1.105245e-4,4.73643e-4
Feedback,1,1,20,f,2021.2.3,2021_Nov_16_1219,trial,1,66,left,congruent,incongruent,f,Feedback,TRUE,f,TRUE,550.3846000065096,NA,-4.458176e-4,-5.007752e-4,-0.001143702,3.353297e-5,-8.815546e-4,-0.001280333,-0.001381785,8.74484e-5,-2.052176e-4,0.001245884,9.856292e-4,0.002369388,-0.001260474,-5.986246e-4,-4.976583e-4,5.432544e-5,-2.055089e-4,-4.496989e-4,-7.82768e-4,0.001745187
Feedback,1,1,20,f,2021.2.3,2021_Nov_16_1219,trial,1,67,right,incongruent,congruent,n,Feedback,TRUE,j,FALSE,405.9861999703571,NA,6.543513e-4,0.001035902,4.846599e-4,9.26823e-4,-2.661295e-4,9.967479e-4,1.926249e-4,-9.127683e-5,0.001413099,3.968907e-4,3.493053e-4,-5.83065e-5,6.443716e-4,0.002661503,-1.186901e-4,0.001111612,0.001973897,0.001225709,6.401432e-4,0.003741784
Feedback,1,1,20,f,2021.2.3,2021_Nov_16_1219,trial,1,68,left,congruent,congruent,f,Feedback,TRUE,f,TRUE,565.9100000048056,NA,0.001841398,0.001358323,5.454563e-4,-2.182045e-4,-2.26323e-5,5.58123e-4,4.702532e-4,4.842582e-4,5.736365e-4,6.94558e-4,-1.624171e-4,0.001986693,8.940483e-4,-0.001167227,2.257698e-4,-0.00141138,-8.721198e-4,0.002537223,0.005362018,0.003489221
Feedback,1,1,20,f,2021.2.3,2021_Nov_16_1219,trial,1,69,right,congruent,congruent,n,Feedback,TRUE,n,TRUE,461.4928000373766,NA,-4.049428e-4,2.831651e-4,-4.409526e-4,-1.671629e-4,2.605009e-4,5.266999e-4,6.512157e-4,5.36053e-5,-1.145098e-4,-1.435224e-4,-0.001706418,0.001720036,0.002488191,-0.001491642,-0.001333309,-0.00201818,-6.363182e-4,-0.001596257,-5.680327e-4,-7.624058e-4
Feedback,1,1,20,f,2021.2.3,2021_Nov_16_1219,trial,1,70,left,congruent,congruent,g,Feedback,TRUE,f,FALSE,541.2954000057655,NA,5.64887e-4,0.001404762,0.001473567,6.695059e-4,0.00143112,8.323446e-4,2.778382e-4,7.268274e-4,7.660368e-4,0.001263743,-0.001169412,-6.645476e-4,-0.001858004,-0.00113822,0.001547816,0.006945464,-5.967501e-4,0.001539685,7.659364e-4,-4.500914e-4
Feedback,1,1,20,f,2021.2.3,2021_Nov_16_1219,trial,1,71,right,congruent,congruent,n,Feedback,TRUE,n,TRUE,397.5784999784082,NA,4.331477e-4,-8.257336e-4,0.002829758,0.005707225,1.915216e-4,-2.186955e-4,0.005873586,2.966884e-4,5.361871e-4,-1.126295e-5,-7.071442e-4,1.923242e-4,0.02188502,0.07995454,0.03733276,0.05330345,0.0243281,0.005343395,0.003238059,0.002876229
Feedback,1,1,20,f,2021.2.3,2021_Nov_16_1219,trial,1,72,left,congruent,incongruent,g,Feedback,TRUE,g,TRUE,612.5875000143424,NA,-0.002574104,-0.003594624,-4.053372e-4,-8.41564e-4,-2.201009e-4,-0.002526252,-6.812252e-4,-9.767036e-4,-0.002102334,-6.30144e-4,3.542537e-4,0.001419692,0.03046573,0.02583426,0.08755921,0.06990302,0.01774184,0.02850195,0.03582375,0.03167218
Feedback,1,1,20,f,2021.2.3,2021_Nov_16_1219,trial,1,73,right,incongruent,incongruent,j,Feedback,TRUE,j,TRUE,468.51819998119026,NA,-0.001032812,0.004289421,0.004875234,0.002453051,0.003181106,-0.001411551,0.00264314,-1.427948e-4,0.004268374,0.001664498,5.686474e-4,0.04740144,0.1607377,0.04294077,0.05134877,0.05397062,0.03437491,0.02019485,0.03437449,0.01683346
Feedback,1,1,20,f,2021.2.3,2021_Nov_16_1219,trial,1,74,left,incongruent,congruent,f,Feedback,TRUE,f,TRUE,500.302099972032,NA,7.399754e-5,0.002420902,0.002109389,0.001136662,1.180852e-4,4.581888e-4,1.916725e-4,-4.881006e-4,-5.316853e-4,0.002821241,0.009862058,0.04913916,0.03670566,0.04605441,0.03189722,0.01634127,0.001816982,0.00387621,0.004015036,0.002829287
Feedback,1,1,20,f,2021.2.3,2021_Nov_16_1219,trial,1,75,right,congruent,incongruent,n,Feedback,TRUE,n,TRUE,548.0893001076765,NA,-4.563618e-4,-4.387284e-4,0.001448025,0.003238782,0.001593926,5.26963e-4,0.001426655,0.001626097,0.004440777,2.032297e-4,-9.549973e-4,-4.505506e-5,0.003913937,0.05958886,0.03966535,0.08113784,0.04344144,0.0483053,0.01453495,0.03386388
Feedback,1,1,20,f,2021.2.3,2021_Nov_16_1219,trial,1,76,left,incongruent,incongruent,f,Feedback,TRUE,f,TRUE,483.84529998293146,NA,-7.117891e-4,-0.001768985,7.87918e-4,0.002431623,-2.799414e-4,-4.618706e-4,-0.001245632,-2.931908e-4,-0.00114118,-0.001347942,0.001233552,0.0011530310000000001,0.0408205,0.04363846,0.02746156,0.05030674,0.0359331,0.01419613,0.003931192,0.01127755
Feedback,1,1,20,f,2021.2.3,2021_Nov_16_1219,trial,1,77,right,incongruent,incongruent,j,Feedback,TRUE,j,TRUE,483.3881000522524,NA,-8.108516e-4,-5.494126e-4,0.001752013,5.991515e-4,2.91063e-4,-0.001581491,-7.793542e-4,-5.468887e-4,7.379102e-5,-7.214544e-4,0.003098118,9.74868e-4,-0.001385739,-0.004535038,-0.005346254,-0.005555403,-0.005199719,-0.004151007,-0.005496687,-0.003813645
Feedback,1,1,20,f,2021.2.3,2021_Nov_16_1219,trial,1,78,left,incongruent,incongruent,g,Feedback,TRUE,g,TRUE,611.1955999513159,NA,0.001301369,3.757051e-4,8.883374e-5,0.001331297,0.001350771,0.001174787,0.003632106,0.00649027,0.001998108,8.216926e-4,7.897301e-4,0.00341174,0.004497099,0.01820633,0.01189042,0.002249242,0.03640091,0.05404238,0.03938145,0.03681798
Feedback,1,1,20,f,2021.2.3,2021_Nov_16_1219,trial,1,79,right,incongruent,incongruent,n,Feedback,TRUE,n,TRUE,474.8932000948114,NA,-0.001487281,-0.002382389,-0.00225104,0.00445569,0.001924278,-0.003036479,-0.002580567,-0.001956652,-0.001853403,-0.001936829,0.01104549,0.011873,-0.0268818,-0.0505553,-0.06000421,-0.05094828,-0.04595718,-0.04443986,-0.04788987,-0.05528274
Feedback,1,1,20,f,2021.2.3,2021_Nov_16_1219,trial,1,80,left,incongruent,congruent,g,Feedback,TRUE,g,TRUE,650.6308000534773,NA,-2.490084e-4,2.764333e-4,4.131782e-4,-2.44268e-4,-3.887899e-4,-2.656756e-4,-1.673819e-4,0.00135203,6.644528e-4,-2.028006e-4,7.418413e-4,4.173727e-4,6.547805e-4,-0.001096371,-2.244939e-4,-0.001830139,-2.239086e-4,-5.420926e-5,0.003434774,1.717191e-4
Feedback,1,1,20,f,2021.2.3,2021_Nov_16_1219,trial,1,81,right,congruent,congruent,n,Feedback,TRUE,n,TRUE,522.5839000195265,NA,0.007596706,0.001219646,5.890052e-4,-1.682364e-5,5.136421e-4,2.098463e-4,5.354381e-4,7.613408e-4,3.826062e-4,0.005497321,0.09180221,0.05101243,0.06031244,0.03275457,0.01038082,0.001700442,0.008714605,0.01272406,0.01166985,0.008653163
Feedback,1,1,20,f,2021.2.3,2021_Nov_16_1219,trial,1,82,left,congruent,incongruent,f,Feedback,TRUE,f,TRUE,561.9827999616973,NA,3.646859e-4,-1.78165e-4,-3.838441e-4,-7.92146e-4,1.741303e-4,0.002586886,1.830661e-4,6.292381e-4,-1.953396e-4,6.955839e-5,-0.002443152,-1.403736e-5,-0.002026287,-0.002845627,3.790339e-4,0.008377755,0.004412565,0.00365867,0.00527791,0.003571111
Feedback,1,1,20,f,2021.2.3,2021_Nov_16_1219,trial,1,83,right,incongruent,congruent,j,Feedback,TRUE,j,TRUE,505.9322000015525,NA,1.835725e-4,-2.397841e-4,-0.0012565,0.004741181,0.00130333,-4.590463e-4,-7.219673e-4,-7.696818e-4,0.003620917,0.005474338,0.001755222,-6.964221e-4,0.001076668,0.01483847,0.01665724,-8.116039e-4,0.005727007,0.004877933,0.02813213,0.06029561
Feedback,1,1,20,f,2021.2.3,2021_Nov_16_1219,trial,1,84,left,congruent,congruent,f,Feedback,TRUE,f,TRUE,433.57110006036237,NA,0.001231888,0.001071806,6.38352e-4,0.01125528,0.01215662,0.001866106,0.001207596,-2.687576e-4,-2.841819e-4,0.001055037,-5.099082e-4,-9.152573e-7,4.216835e-4,5.111457e-4,7.127626e-4,3.200739e-4,-0.001396237,1.246911e-4,-5.500533e-4,-0.001603
Feedback,1,1,20,f,2021.2.3,2021_Nov_16_1219,trial,1,85,right,congruent,congruent,n,Feedback,TRUE,n,TRUE,553.2566999900155,NA,6.848155e-5,-1.548268e-4,-4.271821e-4,-4.848465e-4,-7.917746e-4,-6.216718e-5,-7.66295e-4,-8.641002e-4,-3.500073e-4,4.444232e-4,-0.001973744,-0.003053576,-0.002846486,-0.002882327,-0.003425779,-0.001737085,-0.002275454,-0.002098256,-0.00263633,-0.001518338
Feedback,1,1,20,f,2021.2.3,2021_Nov_16_1219,trial,1,86,left,congruent,incongruent,f,Feedback,TRUE,f,TRUE,433.0670000053942,NA,0.003128713,0.002351474,4.684452e-4,0.00144912,0.002295293,0.001220646,0.002435234,2.205176e-4,0.005275525,0.008376041,0.07240808,0.03538324,0.04485818,0.03174677,0.02565039,0.07963225,0.0220692,0.0472773,0.04728743,0.06998513
Feedback,1,1,20,f,2021.2.3,2021_Nov_16_1219,trial,1,87,right,incongruent,incongruent,n,Feedback,TRUE,n,TRUE,512.6813999959268,NA,0.00139421,3.09763e-4,-4.705417e-4,-1.54936e-4,0.00118946,8.045021e-4,2.436407e-4,-6.070104e-5,-1.597689e-4,1.937589e-4,6.376001e-4,0.002456956,6.545644e-4,0.004078303,0.002803775,0.001088978,-1.839887e-4,-3.678052e-4,9.277571e-4,4.838685e-4
Feedback,1,1,20,f,2021.2.3,2021_Nov_16_1219,trial,1,88,left,incongruent,incongruent,g,Feedback,TRUE,g,TRUE,552.3470000480299,NA,4.518637e-5,4.663244e-4,1.829432e-4,4.248926e-5,0.0032639,0.003930977,0.003717174,9.223053e-4,0.002208796,-3.060086e-4,-0.001292791,3.969483e-4,0.00527199,0.004932916,0.006836108,0.0884983,0.03529776,0.06294322,0.04348903,0.02053431
Feedback,1,1,20,f,2021.2.3,2021_Nov_16_1219,trial,1,89,right,incongruent,incongruent,j,Feedback,TRUE,j,TRUE,520.2277000644244,NA,1.803415e-4,-2.527351e-4,-5.203842e-4,-6.54829e-4,4.749189e-4,1.488298e-4,-4.002405e-5,-5.667508e-4,3.267445e-4,-2.45434e-4,3.775842e-4,-5.2911e-5,9.8857e-4,0.001611745,2.686377e-5,-0.001673439,0.001714355,-2.674246e-5,-2.487835e-4,-4.644168e-4
Feedback,1,1,20,f,2021.2.3,2021_Nov_16_1219,trial,1,90,left,incongruent,incongruent,g,Feedback,TRUE,g,TRUE,495.97809999249876,NA,0.001228577,1.948324e-4,1.963559e-4,5.350113e-4,0.004308745,0.003595748,0.001537754,8.6855e-4,0.00114867,6.161053e-4,0.001236435,4.935344e-4,0.001832037,-1.336476e-4,0.04243606,0.05425442,0.03860242,0.03733631,0.01988347,0.004174238
Feedback,1,1,20,f,2021.2.3,2021_Nov_16_1219,trial,1,91,right,incongruent,congruent,n,Feedback,TRUE,n,TRUE,607.74050001055,NA,7.936091e-4,6.693734e-4,0.004938567,0.005448947,4.008317e-4,0.001209397,-4.673491e-4,9.004003e-5,0.001596947,0.008576442,-2.370971e-4,0.002944123,0.03957645,0.08327478,0.05171609,0.05165502,0.03040793,0.009860664,0.004939822,0.01167542
Feedback,1,1,20,f,2021.2.3,2021_Nov_16_1219,trial,1,92,left,congruent,incongruent,f,Feedback,TRUE,f,TRUE,487.60240006959066,NA,9.546729e-4,0.001391778,-1.615279e-4,-3.728725e-4,-4.134371e-4,-7.047313e-4,-1.60909e-4,-7.59332e-4,-2.350425e-6,1.84915e-4,0.007987914,0.03112522,0.002758397,0.001311114,2.059599e-4,0.001637106,0.002877812,-4.349363e-4,-0.001122383,1.756256e-4
Feedback,1,1,20,f,2021.2.3,2021_Nov_16_1219,trial,1,93,right,incongruent,congruent,j,Feedback,TRUE,j,TRUE,423.0502000427805,NA,-7.102618e-4,4.640596e-4,-7.281986e-4,7.076531e-4,-5.329987e-4,0.0010552,6.141886e-5,7.470888e-4,0.001036772,1.717787e-4,0.002146016,0.005518394,0.001424171,0.005747655,0.0100472,0.008901391,0.008347027,0.007610489,0.00424191,0.002503871
Feedback,1,1,20,f,2021.2.3,2021_Nov_16_1219,trial,1,94,left,congruent,congruent,f,Feedback,TRUE,f,TRUE,382.9753000754863,NA,-8.41148e-4,-0.001247335,-0.001322507,-4.002673e-4,-5.063023e-4,3.347434e-4,-3.18541e-4,-9.832399e-4,-0.001189654,-2.818904e-4,0.00213222,0.001016165,0.001641506,0.002619486,0.005397595,0.01673168,0.01256857,0.01043053,0.005701228,0.002330213
Feedback,1,1,20,f,2021.2.3,2021_Nov_16_1219,trial,1,95,right,congruent,incongruent,n,Feedback,TRUE,j,FALSE,350.8677000063474,NA,0.002838605,6.458859e-4,-3.544614e-6,-7.377788e-4,-9.752547e-4,-8.879602e-4,1.049447e-4,-3.59264e-4,-8.43433e-4,0.001958523,0.0373925,0.0497313,0.03482358,0.04874751,0.03255824,0.01065881,0.005367221,0.01472999,0.01116236,0.00379488
Feedback,1,1,20,f,2021.2.3,2021_Nov_16_1219,trial,1,96,left,incongruent,incongruent,f,Feedback,TRUE,f,TRUE,486.3916000467723,NA,-0.004056601,-0.003658373,-0.002888144,-0.00395002,-0.004098872,-0.004497255,-0.003405539,7.908838e-4,0.001396408,-0.002566968,0.001993866,0.007100157,0.007900449,0.006376478,0.003247334,0.001124846,0.002597394,0.05408962,0.07344856,0.0441193
Feedback,1,1,20,f,2021.2.3,2021_Nov_16_1219,trial,1,97,right,incongruent,congruent,j,Feedback,TRUE,j,TRUE,430.13200006680563,NA,0.001083301,8.073566e-5,0.001302102,0.002887744,6.022519e-4,6.697306e-4,-7.200285e-4,-6.82859e-4,-2.834301e-4,-3.136708e-4,0.001253859,5.123932e-4,0.01903188,0.03497041,0.01457308,0.04168151,0.02995596,0.01236165,0.001713928,0.009892782
Feedback,1,1,20,f,2021.2.3,2021_Nov_16_1219,trial,2,1,right,congruent,congruent,j,Feedback,TRUE,j,TRUE,381.35480001801625,NA,0.004647549,0.003586123,0.004211528,0.001545385,0.00193093,0.002180357,0.001516091,0.004373547,0.00216602,-1.001975e-4,0.08523439,0.08064627,0.008519219,0.0435304,0.1412636,0.1051032,0.0166945,0.02460969,0.03257888,0.02345576
Feedback,1,1,20,f,2021.2.3,2021_Nov_16_1219,trial,2,2,left,congruent,incongruent,f,Feedback,TRUE,f,TRUE,533.0517999827862,NA,0.001135131,-7.356002e-4,0.001967282,2.016074e-4,0.002134196,0.002310556,1.567237e-4,0.004060578,0.001022765,0.004837883,-0.001264959,6.275701e-4,-8.493627e-4,-2.868373e-4,0.002801827,0.0019624,-3.256779e-4,0.001764973,0.004848151,-0.00183425
Feedback,1,1,20,f,2021.2.3,2021_Nov_16_1219,trial,2,3,right,incongruent,congruent,j,Feedback,TRUE,j,TRUE,396.75639994675294,NA,-1.31631e-4,3.597501e-4,9.169786e-4,4.642573e-4,0.001248619,1.791127e-4,6.717122e-4,4.393023e-4,0.005320696,0.002938285,-0.002386421,2.590893e-5,0.001412474,1.111948e-4,3.606165e-4,4.924503e-4,-6.520504e-4,-8.624333e-4,0.05060761,0.03413794
Feedback,1,1,20,f,2021.2.3,2021_Nov_16_1219,trial,2,4,left,congruent,congruent,f,Feedback,FALSE,NA,NA,NA,NA,-0.001157281,-0.001186676,-0.001403755,-0.001066196,2.078826e-4,-0.001024808,-0.001148778,-6.826569e-4,-0.00101104,-3.446077e-4,0.002788032,1.498662e-4,0.001794403,4.541719e-4,2.141375e-4,0.003170767,0.001779044,9.680007e-4,0.001104726,0.001887146
Feedback,1,1,20,f,2021.2.3,2021_Nov_16_1219,trial,2,5,right,congruent,incongruent,n,Feedback,TRUE,n,TRUE,484.45749998791143,NA,5.682216e-4,0.001668968,-1.918238e-4,5.748989e-4,-8.068606e-5,1.805811e-5,-8.818679e-4,-5.015982e-4,-5.680891e-4,-1.965133e-4,0.001550872,-7.006759e-5,0.001975517,0.003181253,0.004166576,0.002569668,9.631435e-5,-5.358465e-4,2.6823e-4,9.401678e-5
Feedback,1,1,20,f,2021.2.3,2021_Nov_16_1219,trial,2,6,left,incongruent,incongruent,g,Feedback,TRUE,f,FALSE,452.0386999938637,NA,5.322041e-4,1.690816e-4,2.239391e-4,5.67531e-4,3.716648e-4,0.001356044,4.980739e-4,9.514934e-4,2.094253e-4,-2.618821e-4,0.002980676,0.001240861,0.004640427,0.002954751,0.001848006,0.004670002,0.001783081,7.243773e-4,4.994087e-4,0.001070452
Feedback,1,1,20,f,2021.2.3,2021_Nov_16_1219,trial,2,7,right,incongruent,congruent,n,Feedback,TRUE,n,TRUE,531.7781999474389,NA,4.227594e-4,-3.727512e-4,-2.487144e-4,8.689822e-5,-6.837447e-4,-0.001436521,-3.695253e-4,-0.001298077,-2.380016e-4,-4.89322e-4,9.058821e-4,-0.001476619,0.004112842,0.004626204,-0.00233902,0.001773514,0.001736971,-0.00128741,0.001756765,5.584811e-4
Feedback,1,1,20,f,2021.2.3,2021_Nov_16_1219,trial,2,8,left,congruent,congruent,g,Feedback,TRUE,g,TRUE,435.49410003470257,NA,5.516023e-4,-4.370948e-4,9.553551e-4,2.239316e-4,0.00065218610000000005,4.254221e-4,8.100425e-4,0.001861176,2.611023e-4,0.001578172,8.654974e-4,4.897083e-4,9.638339e-4,0.003272021,0.003223927,0.001996372,0.002598767,0.001528982,0.002204592,9.548522e-4
Feedback,1,1,20,f,2021.2.3,2021_Nov_16_1219,trial,2,9,right,congruent,congruent,j,Feedback,TRUE,j,TRUE,355.2868000115268,NA,1.208391e-4,2.651399e-4,5.19966e-4,2.411404e-5,-2.256553e-4,3.997011e-4,1.396176e-4,-4.703994e-5,-4.869604e-4,1.01567e-4,9.937189e-5,0.001567732,0.002000617,-4.182803e-6,-1.303809e-4,0.003576,0.00533348,0.003361951,0.002137773,0.002453214
Feedback,1,1,20,f,2021.2.3,2021_Nov_16_1219,trial,2,10,left,congruent,incongruent,f,Feedback,TRUE,f,TRUE,602.9917999985628,NA,-0.001448439,-0.002193861,-0.001786192,0.002965848,0.003116858,-4.131782e-4,0.00354429,-0.001584128,0.001375368,-6.411655e-4,0.001393693,0.003086995,0.001323174,0.020428579999999998,0.08857498,0.04538457,0.05194302,0.03136092,0.00690972,0.003015384
Feedback,1,1,20,f,2021.2.3,2021_Nov_16_1219,trial,2,11,right,incongruent,incongruent,n,Feedback,TRUE,n,TRUE,458.70999997714534,NA,-0.002187182,-0.005549458,-0.005873051,-0.005373654,-0.004917707,-0.001699602,-0.004303653,-0.006002826,-0.005295383,-0.006111634,0.001604717,-0.001142934,0.01174648,0.01021424,0.00464187,0.003441671,0.04705797,0.0393931,1.137936e-4,0.00293305
Feedback,1,1,20,f,2021.2.3,2021_Nov_16_1219,trial,2,12,left,incongruent,congruent,f,Feedback,TRUE,f,TRUE,530.3365000290796,NA,0.001146354,6.639624e-4,0.001622963,2.972749e-4,6.150515e-4,-2.535363e-5,2.350071e-4,0.002529959,6.745709e-5,0.001123569,0.002292203,0.001847821,5.174836e-4,0.001366028,0.001232418,0.002225417,0.002372037,0.001263542,0.001660155,0.002130839
Feedback,1,1,20,f,2021.2.3,2021_Nov_16_1219,trial,2,13,right,congruent,incongruent,j,Feedback,TRUE,n,FALSE,402.1611000061969,NA,0.002485686,0.0023784,0.001150717,-8.510749e-4,-5.317782e-4,-2.401306e-4,1.865695e-4,0.001085139,2.513842e-4,0.002255339,0.0395534,0.06231092,0.0405529,0.08815273,0.05358183,0.01448475,0.004121981,0.01330032,0.01323474,0.01094332
Feedback,1,1,20,f,2021.2.3,2021_Nov_16_1219,trial,2,14,left,incongruent,incongruent,f,Feedback,TRUE,f,TRUE,465.931799961254,NA,1.402637e-4,0.001693298,-0.002021436,-0.001212835,-0.001423396,-0.00246195,-0.002561754,-0.002082405,-0.002206474,0.002786841,0.03512406,0.04934223,0.03831014,0.03913306,0.02113016,0.007129372,-8.738788e-4,0.003809492,0.004043065,0.004951022
Feedback,1,1,20,f,2021.2.3,2021_Nov_16_1219,trial,2,15,right,incongruent,incongruent,n,Feedback,TRUE,n,TRUE,497.75510001927614,NA,-0.001267,-2.820345e-4,0.001145412,4.272922e-4,-0.001160301,-3.176318e-4,0.004080607,-5.852361e-5,-0.001004322,-0.001164906,9.145078e-4,0.001024557,0.002375678,0.001352098,0.001076492,0.001780418,0.001179478,0.004049607,5.52827e-4,-4.186615e-4
Feedback,1,1,20,f,2021.2.3,2021_Nov_16_1219,trial,2,16,left,incongruent,incongruent,g,Feedback,TRUE,g,TRUE,505.4085999727249,NA,-2.411348e-4,4.974597e-4,-0.00139137,-0.00193037,-1.118921e-4,-1.180591e-5,-3.325143e-4,-1.962574e-4,-5.797804e-4,-6.90555e-4,2.92554e-4,-4.981235e-4,-7.601548e-4,-0.001321746,-1.136195e-4,-0.002066817,-0.001875276,-0.002296267,-0.001575201,-0.002368476
Feedback,1,1,20,f,2021.2.3,2021_Nov_16_1219,trial,2,17,right,incongruent,incongruent,j,Feedback,TRUE,j,TRUE,529.1314999922174,NA,0.005007123,0.001472292,-0.001034206,-7.426233e-4,3.858516e-4,2.373576e-4,-4.077563e-5,-1.366562e-4,-4.756253e-4,-7.576915e-5,0.07152249,0.035055,0.04694967,0.03200078,0.01425304,0.003244486,0.001956238,0.006118715,0.009425037,0.006667768
Feedback,1,1,20,f,2021.2.3,2021_Nov_16_1219,trial,2,18,left,incongruent,congruent,f,Feedback,TRUE,f,TRUE,608.8509000255729,NA,0.001059266,0.004761942,0.004611465,1.975601e-4,-3.226919e-4,0.001056551,-4.228696e-4,-3.122061e-4,3.064605e-4,-5.928776e-4,6.937545e-4,0.0717338,0.03323584,0.04203804,0.02286519,0.006146228,-0.001954765,8.546694e-4,0.003103341,0.003379008
Feedback,1,1,20,f,2021.2.3,2021_Nov_16_1219,trial,2,19,right,congruent,congruent,j,Feedback,TRUE,j,TRUE,424.5542999706231,NA,-6.121381e-4,-5.467553e-4,-0.001052952,-5.591342e-4,-2.851926e-4,1.934776e-4,-8.116337e-4,-0.00076310219999999995,0.002873436,0.002113572,-0.00122683,9.586872e-5,5.123361e-4,-2.682218e-4,-3.983271e-4,8.427773e-4,-9.764617e-4,-7.163661e-4,-0.002149057,0.004821545
Feedback,1,1,20,f,2021.2.3,2021_Nov_16_1219,trial,2,20,left,congruent,incongruent,g,Feedback,TRUE,g,TRUE,680.2259999676608,NA,2.442091e-4,-3.739998e-4,0.005521038,0.001644057,0.002074856,0.00203301,1.704204e-4,0.001734398,0.001275373,0.001011569,0.003809757,0.002052231,0.04614042,0.0483432,0.01303075,0.01683898,0.02570985,0.01874021,0.003823272,0.001806147
Feedback,1,1,20,f,2021.2.3,2021_Nov_16_1219,trial,2,21,right,incongruent,incongruent,j,Feedback,TRUE,j,TRUE,504.1623000288382,NA,2.455399e-4,6.896136e-4,3.925939e-4,0.003829425,3.075064e-5,3.805114e-4,0.001703198,2.562469e-4,0.002825947,0.002622027,-0.001146256,-8.897649e-4,0.002669287,-9.59534e-4,-0.001079642,8.138018e-4,0.01328916,0.01676207,0.004726546,0.001209251
Feedback,1,1,20,f,2021.2.3,2021_Nov_16_1219,trial,2,22,left,incongruent,incongruent,g,Feedback,TRUE,f,FALSE,430.82770000910386,NA,-9.883888e-4,1.736444e-4,0.005039185,0.001519066,-3.691926e-5,1.506407e-4,0.005727702,0.1375261,0.03104213,0.001364696,-0.001493935,0.001748724,0.06832902,0.07060272,0.06181442,0.05130233,0.02803754,0.02576955,6.030609e-4,0.001183733
Feedback,1,1,20,f,2021.2.3,2021_Nov_16_1219,trial,2,23,right,incongruent,congruent,n,Feedback,TRUE,n,TRUE,367.64169996604346,NA,-4.132963e-4,6.93365e-5,-5.008433e-4,0.001427409,0.004847535,5.282396e-4,-1.970499e-4,4.455659e-4,0.001456057,0.003065616,0.001666873,9.222798e-4,3.25577e-4,0.0021445600000000002,0.005462233,0.00387874,0.001307691,0.002705728,0.00505583,0.006652157
Feedback,1,1,20,f,2021.2.3,2021_Nov_16_1219,trial,2,24,left,congruent,incongruent,f,Feedback,TRUE,f,TRUE,591.2688999669624,NA,5.088979e-6,-4.123575e-4,0.005171022,0.001068646,-6.075879e-4,-4.284e-4,-2.847554e-4,-1.841248e-4,-8.756921e-4,-2.304111e-4,5.540557e-4,0.001464214,0.005823766,0.01355442,0.004808286,0.004599812,0.004893183,0.002061028,0.00190272,0.002262082
Feedback,1,1,20,f,2021.2.3,2021_Nov_16_1219,trial,2,25,right,incongruent,incongruent,j,Feedback,TRUE,j,TRUE,559.0386000694707,NA,5.513681e-4,-0.001559756,2.903261e-4,0.004185314,0.003523606,-7.54077e-4,-9.340558e-4,-5.151932e-4,-8.338054e-4,-7.49602e-4,0.001204815,-0.002058212,-8.038753e-4,0.0655956,0.02380493,0.03837392,0.02308949,0.005096476,-0.004481089,-0.004239395
Feedback,1,1,20,f,2021.2.3,2021_Nov_16_1219,trial,2,26,left,incongruent,incongruent,f,Feedback,TRUE,f,TRUE,510.92919998336606,NA,-9.482645e-4,0.001130086,-2.384018e-4,0.004758212,0.002107437,3.473258e-4,-0.001240263,-8.730984e-4,-5.87129e-4,-1.56974e-4,0.002413469,0.001687474,9.330622e-4,0.05589327,0.07468446,0.04350732,0.0574526,0.03719792,0.01333738,0.006050199
Feedback,1,1,20,f,2021.2.3,2021_Nov_16_1219,trial,2,27,right,incongruent,congruent,j,Feedback,TRUE,j,TRUE,422.5518999737685,NA,-4.430949e-4,0.002165227,-6.372449e-4,8.752237e-4,-2.18886e-4,-4.60644e-4,0.002946181,-7.559257e-4,-3.10713e-4,-6.337727e-4,0.003483806,-7.451877e-4,-0.001562922,0.001482649,0.004499776,8.19739e-4,0.006972897,0.004569262,0.008269168,0.005509952
Feedback,1,1,20,f,2021.2.3,2021_Nov_16_1219,trial,2,28,left,congruent,congruent,f,Feedback,TRUE,f,TRUE,590.1979000191204,NA,-5.968218e-5,6.995487e-4,6.874392e-4,-8.665067e-4,-6.296169e-4,0.001423293,0.001026831,0.002202117,2.127443e-5,-2.779025e-4,-0.02851744,-0.0241634,-0.02761263,-0.02612025,-0.02103187,-0.02385306,0.03089607,0.01610861,0.01784693,0.01027224
Feedback,1,1,20,f,2021.2.3,2021_Nov_16_1219,trial,2,29,right,congruent,incongruent,n,Feedback,TRUE,n,TRUE,453.98980000754796,NA,0.004815385,0.002774921,5.46529e-4,9.103515e-4,8.418085e-4,0.001212117,0.004631336,0.001898968,9.480643e-4,0.001107792,0.07436597,0.05833085,0.06977232,0.04418218,0.01551627,0.00563921,0.02660121,0.01976054,0.003435263,0.006707433
Feedback,1,1,20,f,2021.2.3,2021_Nov_16_1219,trial,2,30,left,incongruent,incongruent,f,Feedback,TRUE,f,TRUE,453.674900054466,NA,0.007587464,0.002734907,0.00149172,1.119934e-4,2.93585e-4,2.268278e-4,-3.677821e-4,0.001361754,0.001308356,0.001902104,0.04460622,0.0587213,0.03117074,0.00592021,0.004649004,0.01068182,0.01057434,0.003863409,0.00731442,0.00303832
Feedback,1,1,20,f,2021.2.3,2021_Nov_16_1219,trial,2,31,right,incongruent,incongruent,j,Feedback,TRUE,j,TRUE,365.2984999935138,NA,-6.96972e-4,-6.037769e-4,2.251356e-5,-1.029531e-5,-7.501796e-4,1.781038e-4,2.720566e-4,-2.378402e-4,-4.024541e-4,2.686295e-4,-0.004169052,-0.004698688,-0.00389936,-0.004878951,-0.003054921,-0.005393811,-0.004007192,-0.003612477,-0.002895953,-0.005117863
Feedback,1,1,20,f,2021.2.3,2021_Nov_16_1219,trial,2,32,left,incongruent,incongruent,f,Feedback,FALSE,NA,NA,NA,NA,0.006203297,0.006366523,4.666611e-4,-5.542606e-4,1.719717e-4,0.004171898,0.002325979,-3.378e-5,-6.281324e-4,4.392739e-4,0.08354995,0.04027894,0.0478213,0.03371738,0.01806226,0.001367981,0.01276246,9.167558e-4,0.003180893,0.005128256
Feedback,1,1,20,f,2021.2.3,2021_Nov_16_1219,trial,2,33,right,incongruent,incongruent,j,Feedback,TRUE,j,TRUE,492.85000003874325,NA,7.425859e-4,0.005960175,0.005871567,3.215782e-4,-0.001256936,-0.001845298,-0.001731065,-0.001190147,-0.001027267,-5.727187e-4,0.009609863,0.08807213,0.09169198,0.07332435,0.08505696,0.04673576,0.01110242,0.00571517,0.01220247,0.0160288
Feedback,1,1,20,f,2021.2.3,2021_Nov_16_1219,trial,2,34,left,incongruent,congruent,f,Feedback,FALSE,NA,NA,NA,NA,0.003825667,4.155841e-4,-2.11508e-4,-3.977562e-5,-1.954939e-4,3.81425e-4,6.054279e-4,2.459881e-4,-5.657971e-4,-7.768767e-5,0.04889326,0.04540011,0.03511323,0.01523477,0.002698906,0.003931526,0.005087628,0.003197083,0.004354299,0.004286147
Feedback,1,1,20,f,2021.2.3,2021_Nov_16_1219,trial,2,35,right,congruent,incongruent,n,Feedback,FALSE,NA,NA,NA,NA,-6.270921e-4,-4.147799e-4,7.027946e-5,0.001793477,0.001945284,0.002808177,-1.946581e-4,-8.462726e-4,0.003632013,0.008774739,0.008625937,0.003644744,0.001935055,0.006203122,0.02086324,0.02565178,0.04010738,0.01028612,0.02393747,0.06401967
Feedback,1,1,20,f,2021.2.3,2021_Nov_16_1219,trial,2,36,left,incongruent,congruent,g,Feedback,TRUE,f,FALSE,676.0209999629299,"[('g', -0.38659529999131337)]",0.00307927,0.004394547,3.750371e-4,-9.524354e-4,-0.001106322,-5.336076e-4,2.900711e-4,-7.050112e-6,-9.689764e-4,-0.001186794,0.04649997,0.05361638,0.04106191,0.03157767,0.01063056,-8.327756e-4,-0.002799242,0.001106122,9.934367e-4,-0.002495185
Feedback,1,1,20,f,2021.2.3,2021_Nov_16_1219,trial,2,37,right,congruent,congruent,j,Feedback,TRUE,j,TRUE,403.9061000221409,NA,3.390501e-4,8.200458e-5,8.320468e-4,0.002639038,0.004077052,5.389601e-4,9.619743e-4,-2.634479e-5,9.456982e-4,-7.566665e-4,5.733923e-4,0.00380026,0.01531246,0.07967098,0.03611786,0.04886919,0.03107024,0.01201885,0.001943199,0.005157616
Feedback,1,1,20,f,2021.2.3,2021_Nov_16_1219,trial,2,38,left,congruent,incongruent,f,Feedback,TRUE,f,TRUE,515.4190000030212,NA,0.003032818,0.003852225,6.413809e-5,-1.699156e-4,-4.06038e-5,7.213512e-5,-6.35555e-4,-1.535772e-4,4.793901e-4,-7.350023e-4,0.02033009,0.04671375,0.02773652,0.02676967,0.01606968,0.004202812,1.434349e-4,2.176831e-4,0.001402321,0.002015678
Feedback,1,1,20,f,2021.2.3,2021_Nov_16_1219,trial,2,39,right,incongruent,congruent,n,Feedback,TRUE,n,TRUE,611.1489000613799,NA,-4.933134e-4,-2.161523e-4,0.00307015,-1.538498e-4,0.002171049,0.001054882,-4.704229e-4,0.003999585,2.550522e-4,0.001219708,1.109112e-5,4.109843e-4,4.499129e-4,0.00447626,0.002374088,0.001481188,0.003608598,7.100515e-4,-8.49524e-4,2.157714e-4
Feedback,1,1,20,f,2021.2.3,2021_Nov_16_1219,trial,2,40,left,congruent,incongruent,g,Feedback,TRUE,g,TRUE,626.9121999503113,NA,-4.104387e-4,2.771295e-4,-5.370844e-5,6.331168e-4,0.001275754,7.572407e-4,2.97795e-5,0.002734998,-0.001213414,-0.001277194,4.40439e-4,0.002849269,0.004223698,0.001117448,0.002014163,0.001464938,0.001983922,8.485401e-4,-9.833835e-4,0.001096303
Feedback,1,1,20,f,2021.2.3,2021_Nov_16_1219,trial,2,41,right,incongruent,congruent,j,Feedback,TRUE,j,TRUE,378.64869995974004,NA,-9.246059e-4,-5.7959e-4,-0.001080144,-9.268667e-4,-2.510515e-4,-0.001021016,-0.001187948,-6.648272e-4,-5.229814e-4,0.002776439,9.788922e-5,0.001519913,7.470688e-4,-4.903846e-4,-4.780409e-4,-2.522753e-4,-8.866021e-4,-4.652003e-4,-5.567041e-4,0.001798431
Feedback,1,1,20,f,2021.2.3,2021_Nov_16_1219,trial,2,42,left,congruent,congruent,g,Feedback,FALSE,NA,NA,NA,NA,-0.00297632,-0.004103304,-0.002618295,-0.002110297,-0.003476407,-0.003142679,-0.003201922,-0.002937135,-0.002688534,-0.003795528,0.002050593,0.00283235,0.002209777,-0.001112509,-7.2266e-4,-0.002457901,-8.255034e-4,-0.001198582,-0.001888337,-0.002493754
Feedback,1,1,20,f,2021.2.3,2021_Nov_16_1219,trial,2,43,right,congruent,congruent,n,Feedback,TRUE,n,TRUE,490.1727999676948,NA,2.499539e-4,-2.848147e-5,3.227252e-4,6.663385e-4,3.604421e-4,-3.766508e-4,3.016698e-4,1.453375e-4,1.653307e-5,4.785364e-4,-0.001350007,-0.001538179,-3.914507e-4,-4.892857e-4,-4.358189e-4,-0.001257279,-0.001426303,0.00122829,-0.002030599,-0.001167142
Feedback,1,1,20,f,2021.2.3,2021_Nov_16_1219,trial,2,44,left,congruent,incongruent,g,Feedback,TRUE,f,FALSE,409.9846999743022,NA,2.516238e-4,-9.244704e-4,-7.954568e-4,0.003252092,2.258883e-4,-2.43102e-4,0.001630881,0.0011049,-6.486685e-5,0.001075942,0.00372508,0.003669905,6.575816e-4,0.002418459,0.009468969,0.003359257,0.05547243,0.04189675,0.0513588,0.04686225
Feedback,1,1,20,f,2021.2.3,2021_Nov_16_1219,trial,2,45,right,incongruent,congruent,j,Feedback,TRUE,j,TRUE,473.70140004204586,NA,-2.20912e-4,-2.166124e-4,3.152792e-4,-8.881388e-4,-1.869877e-4,-2.270648e-4,0.001686395,0.002172489,-0.001110646,-0.001020733,-0.001006371,-9.396158e-4,6.863575e-4,1.893758e-4,-1.57787e-4,0.001566076,0.02924481,0.06815918,0.04420764,0.05533957
Feedback,1,1,20,f,2021.2.3,2021_Nov_16_1219,trial,2,46,left,congruent,congruent,f,Feedback,TRUE,f,TRUE,481.29629995673895,NA,8.54336e-4,5.943445e-5,-4.956687e-4,2.172927e-4,0.001210441,7.766238e-4,1.520091e-4,4.809673e-4,1.530468e-4,4.763396e-4,1.211802e-4,0.001459618,1.304939e-4,0.00154099,5.767841e-4,0.001665395,-7.254567e-4,7.347837e-4,-8.955429e-4,-0.00145887
Feedback,1,1,20,f,2021.2.3,2021_Nov_16_1219,trial,2,47,right,congruent,congruent,j,Feedback,TRUE,j,TRUE,417.1212999499403,NA,-3.07309e-4,0.001701482,-4.566833e-5,2.260027e-4,0.00266471,0.007423017,0.004784707,9.915698e-5,0.001449029,9.658281e-5,-3.815938e-4,-3.434699e-4,0.001496964,-4.62993e-4,0.05292097,0.09174156,0.06877422,0.07305153,0.03372575,0.006219522
Feedback,1,1,20,f,2021.2.3,2021_Nov_16_1219,trial,2,48,left,congruent,congruent,g,Feedback,TRUE,g,TRUE,416.89970006700605,NA,-0.001150956,2.430892e-5,0.001568791,0.002009922,-4.018995e-4,-5.877798e-4,-5.877996e-5,-2.906695e-4,-9.398675e-5,8.928601e-4,-0.001894287,-1.677631e-4,0.03651505,0.05709841,0.03511739,0.0381901,0.03000098,0.02100236,0.00599442,0.005271012
Feedback,1,1,20,f,2021.2.3,2021_Nov_16_1219,trial,2,49,right,congruent,incongruent,j,Feedback,TRUE,j,TRUE,552.4480000021867,NA,9.092987e-4,-0.001363745,-7.57819e-4,-3.134788e-4,-1.129406e-4,0.001354808,9.411038e-4,-4.560228e-4,-1.450574e-4,0.003203787,0.001076091,-3.188204e-4,-0.001354588,-0.002201305,2.501241e-4,-9.833924e-4,0.002418825,0.001019773,0.001575649,2.099571e-4
Feedback,1,1,20,f,2021.2.3,2021_Nov_16_1219,trial,2,50,left,incongruent,incongruent,g,Feedback,TRUE,g,TRUE,640.3504999470895,NA,3.932123e-4,-4.59648e-4,-2.604215e-4,0.001103492,-7.276053e-4,-0.001188994,0.001992596,-1.15904e-4,-5.207849e-4,-8.806335e-4,-0.001544338,0.002236688,-9.496121e-4,2.078239e-4,-1.134616e-4,-0.001475515,-0.00199291,-5.447527e-4,-0.001511872,7.312116e-4
Feedback,1,1,20,f,2021.2.3,2021_Nov_16_1219,trial,2,51,right,incongruent,incongruent,n,Feedback,TRUE,n,TRUE,504.0342999855054,NA,-0.001270456,-8.079368e-4,-5.221793e-4,-8.731089e-4,-8.26705e-4,-4.974655e-4,0.001289357,3.606158e-4,-1.111429e-4,-9.81515e-4,0.001206463,7.647995e-4,-7.402748e-4,1.241635e-4,2.144384e-4,0.004569676,0.02143597,0.01699207,0.01004384,0.01147193
Feedback,1,1,20,f,2021.2.3,2021_Nov_16_1219,trial,2,52,left,incongruent,incongruent,g,Feedback,TRUE,g,TRUE,551.7217999440618,NA,-2.910462e-4,-0.002440558,-0.002684888,-0.003057837,-0.001784086,-0.002272951,-0.003186304,-0.002461549,-0.003204469,0.002175048,0.02602403,0.04120999,0.03230793,0.0110198,1.09755e-4,0.00456572,0.007323584,0.003713871,0.00179427,0.008267706
Feedback,1,1,20,f,2021.2.3,2021_Nov_16_1219,trial,2,53,right,incongruent,congruent,n,Feedback,TRUE,n,TRUE,503.51580005371966,NA,0.001206828,-8.980976e-5,-4.215813e-4,-0.001049945,-1.769308e-4,2.506922e-4,-7.111207e-5,0.001173007,-1.308448e-4,4.759959e-4,-0.001278779,-0.001292435,0.001005339,-0.001733283,0.002532735,-0.001283239,-0.001401352,2.639103e-4,-0.001312285,5.975172e-4
Feedback,1,1,20,f,2021.2.3,2021_Nov_16_1219,trial,2,54,left,congruent,congruent,g,Feedback,TRUE,g,TRUE,631.2612000037914,NA,-3.11703e-4,-0.001588723,3.000721e-5,5.195662e-5,0.002192839,6.607529e-4,6.317142e-4,-4.674392e-4,0.002358582,0.002142269,-0.001146009,6.409129e-6,-5.374184e-4,0.001978437,0.04035993,0.01853034,0.02542854,0.02325093,0.01458807,0.001435414
Feedback,1,1,20,f,2021.2.3,2021_Nov_16_1219,trial,2,55,right,congruent,incongruent,n,Feedback,TRUE,n,TRUE,518.9807000569999,NA,4.713999e-4,5.519239e-4,0.002298684,0.003756325,9.015873e-4,7.790965e-4,0.001210292,0.001043758,5.640183e-4,0.006988102,-1.272629e-4,0.001300271,0.009273155,0.0508387,0.02167561,0.03434164,0.02481991,0.02563383,0.003956892,0.01574371
Feedback,1,1,20,f,2021.2.3,2021_Nov_16_1219,trial,2,56,left,incongruent,congruent,g,Feedback,TRUE,g,TRUE,382.684700016398,NA,2.679355e-4,6.623073e-4,5.908359e-4,4.415382e-4,0.001064412,-3.417104e-4,-1.546179e-4,1.848326e-4,3.983059e-4,4.017751e-4,-0.008208585,-0.01013201,-0.008235838,-0.009484118,-0.006673068,-0.01280347,-0.01430748,-0.01462432,-0.01453047,-0.01350562
Feedback,1,1,20,f,2021.2.3,2021_Nov_16_1219,trial,2,57,right,congruent,congruent,n,Feedback,TRUE,n,TRUE,438.4622000507079,NA,-4.581197e-4,-3.179698e-4,6.755341e-4,0.002453341,-1.010494e-4,3.940754e-4,-1.5239e-5,0.001804033,0.01140836,0.007738546,0.002442401,0.002163353,0.003943491,0.02803082,0.1298351,0.05445613,0.04836967,0.06316216,0.2075341,0.1354033
Feedback,1,1,20,f,2021.2.3,2021_Nov_16_1219,trial,2,58,left,congruent,congruent,f,Feedback,TRUE,f,TRUE,486.1246000509709,NA,2.792766e-4,1.412355e-4,4.298016e-4,-1.800712e-4,2.27944e-4,3.284507e-4,0.002034404,0.003046107,0.001285957,2.803961e-4,-0.001473108,4.827303e-4,-7.973851e-4,8.059619e-5,2.04762e-4,4.200491e-4,0.003830981,0.1071981,0.08003532,0.03421612
Feedback,1,1,20,f,2021.2.3,2021_Nov_16_1219,trial,2,59,right,congruent,incongruent,j,Feedback,TRUE,j,TRUE,493.770900007803,NA,1.610077e-4,1.741257e-4,3.158066e-4,4.573364e-4,7.726236e-4,8.084171e-4,0.002878576,0.004157796,7.942896e-4,8.468132e-4,0.001861582,5.263487e-4,1.121798e-4,7.105909e-4,-2.949192e-4,0.00484041,0.02411605,0.06290299,0.03981299,0.0410448
Feedback,1,1,20,f,2021.2.3,2021_Nov_16_1219,trial,2,60,left,incongruent,congruent,g,Feedback,TRUE,g,TRUE,421.68800003128104,NA,2.899587e-4,4.185804e-4,6.926169e-4,-8.630892e-5,-3.320591e-4,-4.899153e-5,0.001138463,-8.037835e-4,5.324655e-4,0.002644894,0.001133432,-7.291336e-4,0.00039308430000000003,8.018592e-4,0.00143079,3.002584e-4,-8.912031e-4,0.001663722,1.910015e-4,-6.83673e-4
Feedback,1,1,20,f,2021.2.3,2021_Nov_16_1219,trial,2,61,right,congruent,congruent,j,Feedback,TRUE,j,TRUE,397.6717000477945,NA,-9.219472e-4,-2.14855e-4,0.00358594,2.650565e-4,-6.641205e-4,-1.930289e-4,-7.136208e-4,0.001077596,-8.948599e-4,-4.956746e-4,6.374856e-4,3.395164e-4,0.05909301,0.0320909,0.04167667,0.03393397,0.01463792,0.004443137,0.00391453,0.008869478
Feedback,1,1,20,f,2021.2.3,2021_Nov_16_1219,trial,2,62,left,congruent,congruent,g,Feedback,TRUE,g,TRUE,349.0860000019893,NA,-0.001413241,-8.194125e-4,6.940914e-6,-0.001024139,-2.085129e-4,0.001181094,-0.001202906,0.004603838,3.457821e-4,-9.248415e-4,0.002772458,0.002053354,2.765461e-4,0.002934969,3.319666e-4,0.005992287,0.002250723,-4.423223e-4,0.002527293,0.005270431
Feedback,1,1,20,f,2021.2.3,2021_Nov_16_1219,trial,2,63,right,congruent,incongruent,j,Feedback,TRUE,n,FALSE,356.98560008313507,NA,0.004565569,0.001491095,0.001481471,0.0012861,0.001742958,0.001947071,0.001210995,-7.886495e-4,0.00017211750000000001,-6.369757e-5,0.06352145,0.02549489,0.03536756,0.01869106,0.00778686,0.001557971,0.005816984,0.006577841,0.003375005,0.002486968
Feedback,1,1,20,f,2021.2.3,2021_Nov_16_1219,trial,2,64,left,incongruent,congruent,g,Feedback,TRUE,g,TRUE,420.8664000034332,NA,-8.388446e-4,-9.627703e-4,-0.001427905,0.001342232,-8.15934e-5,-5.612615e-4,-0.001015397,-0.001305075,-6.398021e-4,-7.682738e-4,-4.554454e-4,-0.002501233,-6.562441e-4,-0.002598646,-5.602846e-4,-0.00126645,-0.001466297,-0.003022476,-8.968597e-4,-8.881639e-4
Feedback,1,1,20,f,2021.2.3,2021_Nov_16_1219,trial,2,65,right,congruent,congruent,n,Feedback,TRUE,n,TRUE,508.3272000192667,NA,0.001299871,7.727556e-5,-5.5418e-4,-3.333709e-4,0.003626046,0.001981151,-3.440778e-4,-9.473923e-4,-7.455521e-4,0.003745936,0.01976406,0.01045208,0.0102771,0.0081298369999999991,0.04743287,0.0728302,0.05822724,0.0494994,0.02376267,0.008190189
Feedback,1,1,20,f,2021.2.3,2021_Nov_16_1219,trial,2,66,left,congruent,incongruent,g,Feedback,TRUE,g,TRUE,508.0567999975756,NA,5.71352e-4,0.002449783,0.002086612,2.177688e-4,8.594987e-4,2.620795e-4,6.811188e-4,4.374303e-4,8.847681e-4,8.304673e-4,-7.867394e-5,0.005154526,0.008845137,0.006893692,0.003351914,-0.002549578,5.502044e-4,-0.001023344,-0.001852848,-0.002372361
Feedback,1,1,20,f,2021.2.3,2021_Nov_16_1219,trial,2,67,right,incongruent,incongruent,j,Feedback,TRUE,j,TRUE,531.8028999608939,NA,0.001053908,7.75866e-4,0.00262815,0.001194809,5.48119e-4,2.870918e-4,0.00458343,0.001332194,0.001557451,5.648017e-4,-2.016043e-4,-0.001021822,-7.930836e-4,-4.55664e-4,-0.001582824,-0.002216819,0.06159198,0.04223599,0.04413826,0.029368
Feedback,1,1,20,f,2021.2.3,2021_Nov_16_1219,trial,2,68,left,incongruent,congruent,g,Feedback,TRUE,g,TRUE,443.5358999762684,NA,-6.033108e-6,1.790537e-4,0.00231399,0.001491709,0.001651311,-6.493202e-4,-3.790543e-4,4.681456e-5,7.011264e-4,1.234834e-4,4.782763e-4,0.001227702,0.01870323,0.07419867,0.03796106,0.04556888,0.02767992,0.008594201,-1.9257e-4,0.004177213
Feedback,1,1,20,f,2021.2.3,2021_Nov_16_1219,trial,2,69,right,congruent,incongruent,n,Feedback,TRUE,n,TRUE,443.24000005144626,NA,0.001467617,4.339616e-4,7.855166e-4,1.753171e-4,0.0030996,9.087452e-4,1.368623e-4,0.002927734,0.001204191,1.445925e-4,9.183198e-4,3.075692e-4,0.00353992,4.291452e-4,9.44337e-4,5.800008e-4,1.560793e-4,0.001700717,0.001919202,8.714503e-4
Feedback,1,1,20,f,2021.2.3,2021_Nov_16_1219,trial,2,70,left,incongruent,incongruent,f,Feedback,TRUE,f,TRUE,491.0467999870889,NA,5.71216e-4,0.004020251,0.00494432,9.03354e-4,-7.175892e-4,1.550773e-4,6.428682e-4,-5.555868e-4,0.002705744,-1.650262e-4,-1.205693e-4,0.002492032,0.06269686,0.02814891,0.04183396,0.02326081,0.004977331,0.002032457,0.008114247,0.01070634
Feedback,1,1,20,f,2021.2.3,2021_Nov_16_1219,trial,2,71,right,incongruent,congruent,j,Feedback,TRUE,j,TRUE,514.6851000608876,NA,0.003404641,0.004724221,0.004237306,0.002396174,8.828151e-4,6.552055e-4,0.003497275,0.004095796,0.001682016,1.994427e-5,6.86557e-4,0.0523229,0.04711346,0.04025605,0.06637929,0.03009562,8.59201e-4,0.01344202,0.02130135,0.01226831
Feedback,1,1,20,f,2021.2.3,2021_Nov_16_1219,trial,2,72,left,congruent,incongruent,g,Feedback,TRUE,g,TRUE,482.4829999706708,NA,0.001390735,0.001981288,3.027504e-4,2.341412e-4,1.762279e-4,-3.867741e-4,0.002299234,3.785992e-4,-8.425161e-4,0.001848161,0.001469634,0.002148535,0.003089437,0.002690722,-7.136967e-4,-0.002272478,-0.002372785,-0.003327715,-0.002640567,-0.002337382
Feedback,1,1,20,f,2021.2.3,2021_Nov_16_1219,trial,2,73,right,incongruent,congruent,j,Feedback,TRUE,j,TRUE,418.0895999888887,NA,-3.590882e-4,-6.433765e-4,1.855551e-4,0.00230661,0.00229004,0.003837503,1.129368e-4,1.585693e-5,4.684636e-4,-1.168074e-4,4.058356e-4,0.001415678,0.001211148,0.003503468,0.004888133,0.003215901,0.001210952,8.498641e-4,0.003449799,0.005576848
Feedback,1,1,20,f,2021.2.3,2021_Nov_16_1219,trial,2,74,left,congruent,incongruent,g,Feedback,TRUE,f,FALSE,425.9396000416018,NA,6.053497e-4,9.242662e-4,0.001879644,-4.786316e-4,0.003421829,0.001742689,9.20974e-4,0.001362657,0.001429876,0.001136728,-0.001160311,1.171976e-5,0.001256172,-5.636828e-4,0.003396985,-0.00135734,-0.001187759,-0.001666208,0.00129689,-0.002165549
Feedback,1,1,20,f,2021.2.3,2021_Nov_16_1219,trial,2,75,right,incongruent,incongruent,n,Feedback,TRUE,n,TRUE,521.7166999937035,NA,0.001151739,-3.685011e-5,0.001040806,0.003497066,0.002653241,1.825648e-5,-6.99071e-4,9.475537e-4,0.001469711,-0.001106613,2.84715e-4,0.001068933,0.001106937,0.02886071,0.07163069,0.03384948,0.04851121,0.03081384,0.01307066,0.001906659
Feedback,1,1,20,f,2021.2.3,2021_Nov_16_1219,trial,2,76,left,incongruent,incongruent,f,Feedback,TRUE,f,TRUE,513.115200039465,NA,2.236941e-4,3.351967e-4,0.00132379,0.001037547,0.002015925,6.09572e-4,5.976988e-4,-6.81038e-4,3.240767e-4,3.996282e-4,9.838729e-4,8.366411e-4,0.005426592,0.05098754,0.02952871,0.04300305,0.0309224,0.01326243,-4.791974e-4,0.005290751
Feedback,1,1,20,f,2021.2.3,2021_Nov_16_1219,trial,2,77,right,incongruent,incongruent,n,Feedback,TRUE,n,TRUE,705.1258000428788,NA,2.522976e-5,4.86759e-4,0.001024521,9.818124e-4,0.001191613,-6.040535e-5,0.004538669,6.787386e-4,0.001357326,5.680094e-4,5.783001e-4,0.001670588,0.003103417,0.002754018,5.895409e-4,6.185551e-4,0.01044052,0.05391615,0.05787228,0.06847484
Feedback,1,1,20,f,2021.2.3,2021_Nov_16_1219,trial,2,78,left,incongruent,congruent,f,Feedback,TRUE,f,TRUE,616.8317000265233,NA,5.326788e-4,4.498845e-4,0.001216233,0.003197308,0.002838313,0.001249311,3.610831e-5,5.541705e-4,0.001063989,6.827407e-4,0.001293113,0.001814294,-1.615017e-4,0.03542065,0.06323101,0.03961077,0.04349087,0.03059302,0.004275098,0.004953095
Feedback,1,1,20,f,2021.2.3,2021_Nov_16_1219,trial,2,79,right,congruent,congruent,n,Feedback,TRUE,n,TRUE,568.6294000479393,NA,3.64525e-4,0.001159074,-2.177623e-4,0.002070025,3.32352e-4,2.660598e-4,0.001253748,3.678165e-5,2.882262e-4,9.551391e-4,1.237886e-4,-0.001180542,8.192912e-4,-6.046944e-4,-6.03672e-4,1.444784e-4,0.001426416,8.183764e-4,-4.458211e-4,0.001555303
Feedback,1,1,20,f,2021.2.3,2021_Nov_16_1219,trial,2,80,left,congruent,incongruent,f,Feedback,TRUE,f,TRUE,600.3518999787045,NA,9.813262e-4,5.919486e-6,-3.136627e-4,4.907337e-4,-6.03195e-4,5.631628e-4,-3.743749e-4,9.582816e-4,7.374152e-4,8.253758e-4,-0.002686437,-3.994007e-4,-4.025132e-4,-0.001417557,-0.001349535,-0.00211515,-0.001394085,-0.001307588,-0.003088379,0.001984844
Feedback,1,1,20,f,2021.2.3,2021_Nov_16_1219,trial,2,81,right,incongruent,congruent,n,Feedback,TRUE,n,TRUE,432.0379000273533,NA,0.005281889,3.96061e-4,4.232484e-4,0.00310227,0.002410328,3.835526e-4,2.118207e-4,0.001534505,0.001145652,0.005266163,0.04859984,0.03461928,0.02662115,0.03285268,0.03632879,0.04291771,0.03061215,0.004948486,0.002084755,0.007314515
Feedback,1,1,20,f,2021.2.3,2021_Nov_16_1219,trial,2,82,left,congruent,incongruent,f,Feedback,TRUE,f,TRUE,663.6440999573097,NA,0.004142648,0.001973429,7.319574e-4,-1.858831e-4,0.001601388,-2.492894e-5,4.08222e-6,-9.441196e-4,1.104369e-4,5.770072e-4,0.07098274,0.0552582,0.05815327,0.06038833,0.02644143,0.004036029,0.003875136,0.007314387,0.01468829,0.02131892
Feedback,1,1,20,f,2021.2.3,2021_Nov_16_1219,trial,2,83,right,incongruent,congruent,n,Feedback,TRUE,n,TRUE,503.4138000337407,NA,-1.446304e-4,3.326391e-4,5.883677e-5,-4.62767e-4,0.002026221,0.001131297,-9.844303e-4,-0.001108984,2.338544e-4,7.153153e-4,0.001456759,0.001071099,0.00150473,4.414063e-4,-8.489005e-5,0.00392584,4.117439e-4,0.001990099,5.394571e-4,0.001349345
Feedback,1,1,20,f,2021.2.3,2021_Nov_16_1219,trial,2,84,left,congruent,congruent,g,Feedback,TRUE,g,TRUE,398.99229997536145,NA,0.001525521,0.004877409,0.001784263,-6.735062e-4,6.719166e-5,6.516657e-4,2.283351e-4,0.001677232,1.688944e-4,-6.373604e-4,0.009772604,0.07078444,0.02743534,0.04688796,0.03352143,0.0148527,6.962498e-5,0.00842507,0.01333421,0.008242888
Feedback,1,1,20,f,2021.2.3,2021_Nov_16_1219,trial,2,85,right,congruent,incongruent,j,Feedback,TRUE,n,FALSE,446.87589997192845,NA,7.580081e-5,1.744609e-4,8.076169e-4,0.002540748,-2.991832e-4,-0.001244844,-0.001307746,-3.052223e-4,-0.002417461,-0.002182276,0.002298777,5.748752e-4,0.005673082,0.06818609,0.03102828,0.04816746,0.03038432,0.005170099,-0.002621785,0.006008633
Feedback,1,1,20,f,2021.2.3,2021_Nov_16_1219,trial,2,86,left,incongruent,incongruent,g,Feedback,TRUE,g,TRUE,742.7564000245184,NA,0.002605614,0.003480876,4.020985e-4,-4.195473e-4,-0.001659511,-7.070811e-4,-0.001694927,5.456302e-4,0.004463395,-7.571564e-4,0.04899572,0.1020434,0.04451859,0.0940945,0.0716022,0.02485869,0.01026744,0.01132646,0.01658995,0.023104
Feedback,1,1,20,f,2021.2.3,2021_Nov_16_1219,trial,2,87,right,incongruent,incongruent,n,Feedback,TRUE,n,TRUE,510.3798000491224,NA,-2.282849e-4,-6.222941e-4,-0.001187534,8.38178e-4,3.597583e-5,0.002178307,0.001321585,-5.055477e-4,-1.159618e-4,2.167877e-4,-5.488251e-4,-6.78428e-4,-9.105448e-5,9.020129e-4,-3.347851e-4,-8.277224e-4,0.001022907,9.565754e-4,2.209838e-4,9.965617e-6
Feedback,1,1,20,f,2021.2.3,2021_Nov_16_1219,trial,2,88,left,incongruent,congruent,g,Feedback,TRUE,g,TRUE,470.1738999574443,NA,0.004182223,0.004703606,0.001460201,0.004946956,0.006522797,0.004827207,0.003729007,5.61693e-4,0.004196357,1.690409e-4,-0.001664715,0.02520017,0.00461177,0.00366612,0.05165678,0.01816424,0.007566986,0.02166526,0.02820241,0.01524237
Feedback,1,1,20,f,2021.2.3,2021_Nov_16_1219,trial,2,89,right,congruent,incongruent,n,Feedback,TRUE,n,TRUE,445.88369998382404,NA,0.002048219,0.005131642,9.174452e-4,0.001785365,1.180656e-4,-6.487041e-4,0.001438838,-2.894085e-5,1.565593e-4,4.600335e-4,0.03804083,0.05870699,0.04334085,0.04003186,0.01740184,0.006209647,0.005499984,0.004070524,0.006087989,0.001426808
Feedback,1,1,20,f,2021.2.3,2021_Nov_16_1219,trial,2,90,left,incongruent,congruent,f,Feedback,TRUE,f,TRUE,533.7006000336262,NA,-6.811351e-4,5.140856e-4,3.251228e-4,-1.27177e-4,-2.228417e-4,3.46032e-4,6.644318e-4,-2.244152e-4,7.075176e-4,4.487722e-4,-1.647084e-4,2.67287e-4,5.472375e-4,-7.401991e-4,2.688246e-4,0.002021851,2.21892e-4,-7.470753e-4,0.002790912,0.004417146
Feedback,1,1,20,f,2021.2.3,2021_Nov_16_1219,trial,2,91,right,congruent,congruent,n,Feedback,TRUE,n,TRUE,437.4136999831537,NA,-5.287798e-4,-8.102821e-4,-6.13098e-4,-0.001474012,-3.133663e-4,2.337836e-4,0.002441559,0.001211351,-0.001600141,-2.342411e-4,4.309536e-4,5.164875e-4,0.002905509,0.001536857,-1.599372e-5,0.005742291,0.06827948,0.04264432,0.04976336,0.03843978
Feedback,1,1,20,f,2021.2.3,2021_Nov_16_1219,trial,2,92,left,congruent,congruent,f,Feedback,TRUE,f,TRUE,509.1295999591239,NA,-9.644134e-4,2.925042e-4,5.444516e-4,-4.709521e-4,4.034545e-4,-5.431261e-4,-2.804373e-4,-2.481895e-4,0.001668284,0.002754374,-5.080341e-4,-8.490056e-4,0.001085736,3.541077e-4,2.641974e-4,-7.877419e-4,3.05048e-4,0.002455191,8.587153e-4,0.00370202
Feedback,1,1,20,f,2021.2.3,2021_Nov_16_1219,trial,2,93,right,congruent,congruent,n,Feedback,TRUE,n,TRUE,412.5745999626813,NA,1.706453e-4,2.875153e-4,-2.862867e-4,2.205383e-4,-1.822079e-4,-0.00127906,-4.373258e-4,2.360018e-5,0.002457377,0.005694202,-0.002985008,-0.001323737,-0.002458631,-0.002651552,-0.002059467,-8.113841e-4,-0.001030605,-0.001696417,0.02268095,0.06707173
Feedback,1,1,20,f,2021.2.3,2021_Nov_16_1219,trial,2,94,left,congruent,congruent,f,Feedback,TRUE,f,TRUE,492.6586999790745,NA,1.923339e-4,3.393281e-4,0.001097927,4.025176e-5,4.649947e-4,-9.938325e-4,0.001518338,-3.015762e-5,5.394365e-4,0.004317133,9.803483e-4,8.072203e-4,-6.228086e-4,4.331453e-5,0.001252521,0.002004006,6.837694e-4,0.002474091,0.001543494,0.05301535
Feedback,1,1,20,f,2021.2.3,2021_Nov_16_1219,trial,2,95,right,congruent,incongruent,j,Feedback,TRUE,j,TRUE,580.2586999488994,NA,-0.001890164,-0.002153148,-0.001378746,-0.001875911,0.001520926,-7.006268e-4,-0.002315677,-0.001203088,-0.001409141,-0.001419869,0.001475447,9.910783e-4,0.00248994,0.004342443,0.006127751,0.005276399,0.002154025,6.832727e-4,0.003686045,0.003879951
Feedback,1,1,20,f,2021.2.3,2021_Nov_16_1219,trial,2,96,left,incongruent,congruent,f,Feedback,TRUE,f,TRUE,484.09699997864664,NA,2.886895e-4,0.001408827,0.001408064,0.001524661,0.001243731,0.001285266,7.90129e-4,8.332413e-4,4.105801e-4,0.004816093,-3.201021e-4,0.00166919,-3.450126e-4,0.001481624,3.205643e-4,1.411831e-4,0.001180652,8.574361e-4,-0.001428992,8.492079e-4
Feedback,1,1,20,f,2021.2.3,2021_Nov_16_1219,trial,2,97,right,congruent,congruent,j,Feedback,TRUE,j,TRUE,515.8212000387721,NA,-6.59968e-4,4.693847e-4,-3.095898e-4,0.001520501,-6.64629e-5,-9.659184e-4,-2.32798e-5,3.160269e-4,4.779059e-5,-1.804102e-4,-0.001729575,-0.001129444,-7.527042e-5,-0.002100274,-0.001325952,-0.002412409,-9.863528e-4,-0.001565731,-0.001936873,-0.002628806
Feedback,1,1,20,f,2021.2.3,2021_Nov_16_1219,trial,3,1,right,congruent,congruent,j,Feedback,TRUE,j,TRUE,468.5598000069149,NA,1.236051e-4,1.526794e-4,7.991395e-4,5.382642e-4,3.268218e-4,-1.386763e-4,0.001053001,8.193753e-5,5.985738e-4,-1.72158e-4,-0.001187785,-8.116558e-4,-7.250267e-4,-8.808216e-6,-7.800288e-4,-0.001358311,-8.246363e-4,0.001111576,3.863568e-5,-0.001384828
Feedback,1,1,20,f,2021.2.3,2021_Nov_16_1219,trial,3,2,left,congruent,incongruent,f,Feedback,TRUE,f,TRUE,1012.1025000116786,NA,-9.92592e-5,-6.174068e-4,7.03857e-4,0.001597929,0.001723233,4.593332e-4,-7.320603e-4,-6.094635e-4,-1.912427e-4,0.001101142,0.002028498,0.002555057,0.007782713,0.03358768,0.02252471,0.02006343,0.01335773,0.003096713,0.003601252,0.01587325
Feedback,1,1,20,f,2021.2.3,2021_Nov_16_1219,trial,3,3,right,incongruent,incongruent,n,Feedback,TRUE,n,TRUE,596.0242000292055,NA,0.002901929,0.001599195,0.002397955,-1.763769e-4,0.001268481,4.890058e-4,7.83721e-4,-4.050159e-5,1.852599e-4,0.005583031,0.0653545,0.03437765,0.04563998,0.08576387,0.05479047,0.01437544,0.008425949,0.007467602,0.01660366,0.02395948
Feedback,1,1,20,f,2021.2.3,2021_Nov_16_1219,trial,3,4,left,incongruent,congruent,f,Feedback,TRUE,f,TRUE,395.78750001965113,NA,-0.001323129,-0.001508635,-3.38841e-4,-8.791375e-4,-5.672059e-4,-7.194814e-4,-9.638178e-4,-0.001131861,0.003797046,9.870806e-4,-0.003322495,-0.002269324,2.746447e-4,-3.078734e-4,0.004290262,0.005454861,-0.001746533,-0.002414726,0.05318737,0.02992026
Feedback,1,1,20,f,2021.2.3,2021_Nov_16_1219,trial,3,5,right,congruent,congruent,j,Feedback,TRUE,j,TRUE,403.37160002673045,NA,-1.382132e-4,2.504541e-4,-4.278927e-4,-3.195205e-4,0.006320493,0.001815386,0.001932889,0.005515872,0.002017763,-1.913938e-5,2.968186e-4,0.00238356,0.002918669,0.00065142590000000005,0.07384022,0.07639289,0.008785259,0.06515624,0.1295113,0.05260463
Feedback,1,1,20,f,2021.2.3,2021_Nov_16_1219,trial,3,6,left,congruent,incongruent,f,Feedback,TRUE,f,TRUE,483.2399000297303,NA,-1.638345e-4,-7.462678e-4,2.676777e-4,-8.985146e-4,-1.231763e-4,-0.001157846,-1.597744e-4,-3.94084e-4,-4.028501e-4,-1.652858e-4,0.004057854,9.794675e-4,0.002321243,0.002839114,0.002559092,0.003185671,0.001073246,0.002162994,0.003042906,0.001359346
Feedback,1,1,20,f,2021.2.3,2021_Nov_16_1219,trial,3,7,right,incongruent,incongruent,j,Feedback,TRUE,j,TRUE,659.103600017261,NA,-1.829164e-4,4.76737e-4,-7.134285e-4,-2.604746e-4,1.623794e-4,-5.822908e-5,-7.938512e-4,4.795808e-4,9.60622e-5,-7.500637e-4,6.500003e-4,0.00148683,0.001379936,0.001312565,0.002683276,0.001202432,-8.161084e-4,-1.888797e-4,3.771065e-4,-0.001117602
Feedback,1,1,20,f,2021.2.3,2021_Nov_16_1219,trial,3,8,left,incongruent,congruent,f,Feedback,TRUE,f,TRUE,378.67689999984555,NA,9.069445e-4,-0.001525853,-6.642574e-4,-4.799571e-4,7.211997e-4,0.003534208,0.002637516,6.061734e-4,-8.135289e-5,-3.241308e-4,0.00366741,0.002974699,8.313081e-4,0.002661064,0.003683246,0.05536086,0.03520212,0.0346269,0.02774112,0.01490597
Feedback,1,1,20,f,2021.2.3,2021_Nov_16_1219,trial,3,9,right,congruent,congruent,n,Feedback,TRUE,n,TRUE,514.5424000220373,NA,-0.003494245,-0.004223755,-0.004992448,-0.003865841,-0.003998976,-0.003983516,-0.00334304,-0.00445045,-0.003297525,-0.004624563,-0.007419655,-0.004160809,-0.003698612,-0.005105088,-0.004830983,-0.006036815,-0.005889551,-0.005318688,-0.003805942,-0.003366129
Feedback,1,1,20,f,2021.2.3,2021_Nov_16_1219,trial,3,10,left,congruent,congruent,f,Feedback,TRUE,f,TRUE,498.0720999883488,NA,-0.001120304,-2.225188e-4,0.003238671,0.001249913,0.001102594,2.35785e-4,6.131059e-5,0.001540182,5.884792e-4,0.005994164,-0.0019281980000000001,-3.680678e-4,0.005304745,0.0182533,0.02395169,0.01503297,0.0181018,0.01662147,0.010075,0.006405537
Feedback,1,1,20,f,2021.2.3,2021_Nov_16_1219,trial,3,11,right,congruent,congruent,n,Feedback,TRUE,n,TRUE,377.77389999246225,NA,0.001987365,0.002760833,0.003983782,0.003516732,0.002800885,0.002098716,3.472173e-4,2.754717e-4,-2.798859e-4,6.426014e-4,0.0289142,0.06606806,0.02640865,0.01486876,0.06059392,0.1542407,0.1116888,0.01563895,0.02209236,0.03607101
Feedback,1,1,20,f,2021.2.3,2021_Nov_16_1219,trial,3,12,left,congruent,incongruent,f,Feedback,TRUE,g,FALSE,441.597199998796,NA,0.001161749,5.720691e-4,0.00111467,0.001967389,9.229551e-4,5.000592e-4,0.002585365,0.001261936,2.13461e-4,2.698842e-4,0.002399379,0.002972482,0.009118417,0.04632426,0.01263035,0.02174411,0.01701242,0.007714738,9.786435e-4,0.002311588
Feedback,1,1,20,f,2021.2.3,2021_Nov_16_1219,trial,3,13,right,incongruent,congruent,j,Feedback,TRUE,j,TRUE,369.2509999964386,NA,-7.520067e-4,-0.001354199,0.002860726,0.001251276,8.673142e-4,1.979419e-4,9.692819e-4,8.502663e-4,-6.422903e-4,-1.905039e-4,-1.65158e-4,-1.245635e-4,-9.788289e-4,0.005097115,1.891139e-4,0.001415161,0.005067897,-0.001065091,-0.001223947,-0.001250842
Feedback,1,1,20,f,2021.2.3,2021_Nov_16_1219,trial,3,14,left,congruent,congruent,g,Feedback,TRUE,g,TRUE,441.15070003317646,NA,7.867683e-4,0.001882922,-1.645999e-4,-7.679805e-4,-7.009478e-4,-0.001723187,-0.001065058,-9.280839e-4,0.002126958,-2.136861e-4,0.002499572,0.006317003,0.03217734,0.01422119,0.0326018,0.02362411,0.006048701,4.470781e-4,0.004400119,0.005474438
Feedback,1,1,20,f,2021.2.3,2021_Nov_16_1219,trial,3,15,right,congruent,congruent,n,Feedback,TRUE,n,TRUE,464.85889999894425,NA,0.00132018,-8.065554e-4,6.28768e-4,8.103161e-4,0.001468695,0.006681539,0.001748902,0.001592876,7.809e-5,7.928244e-4,0.002503778,0.002962916,9.184268e-4,-2.485546e-4,0.01329291,0.05073659,0.02472984,0.02531778,0.03177806,0.01618587
Feedback,1,1,20,f,2021.2.3,2021_Nov_16_1219,trial,3,16,left,congruent,congruent,g,Feedback,TRUE,g,TRUE,384.44049993995577,NA,0.001514136,6.402468e-4,0.006817034,0.004216602,0.001168156,-2.263605e-4,-1.005565e-4,0.001386458,8.959e-4,-3.796739e-4,0.001355964,0.00149711,0.06028812,0.05475855,0.04868749,0.03883813,0.02020252,0.005816394,0.005949665,0.006137986
Feedback,1,1,20,f,2021.2.3,2021_Nov_16_1219,trial,3,17,right,congruent,congruent,n,Feedback,TRUE,n,TRUE,408.30740006640553,NA,0.00126094,0.001458493,3.769677e-4,-3.874023e-4,4.047973e-4,0.001301963,-6.910007e-4,0.001611319,0.007290593,0.001307857,-2.506918e-4,0.003274157,-0.001718811,-0.002144942,-8.697773e-4,-0.001005612,1.112751e-4,0.01561482,0.04567616,0.02468077
Feedback,1,1,20,f,2021.2.3,2021_Nov_16_1219,trial,3,18,left,congruent,congruent,g,Feedback,TRUE,g,TRUE,456.0165000730194,NA,9.753625e-5,0.004726127,0.00340304,0.001457257,0.003471998,-2.063287e-4,0.001616394,4.799189e-4,-1.383871e-4,9.522762e-4,-0.003593922,-5.753045e-4,0.08483762,0.02535282,0.005436383,0.02014347,0.03468994,0.0389072,0.02000479,0.02270036
Feedback,1,1,20,f,2021.2.3,2021_Nov_16_1219,trial,3,19,right,congruent,incongruent,n,Feedback,TRUE,n,TRUE,431.67739995988086,NA,2.671594e-4,6.028845e-4,-4.146735e-4,-5.882143e-4,5.888736e-4,2.402226e-4,-3.362028e-4,6.22354e-4,-1.812396e-4,-6.397497e-4,1.396576e-4,5.130232e-4,5.398425e-4,4.568771e-4,5.801469e-4,5.412048e-4,0.001043852,3.759565e-4,-3.023722e-4,0.001084043
Feedback,1,1,20,f,2021.2.3,2021_Nov_16_1219,trial,3,20,left,incongruent,congruent,g,Feedback,TRUE,g,TRUE,399.49970005545765,NA,0.001572716,0.003046404,9.263544e-4,3.869487e-4,6.275757e-4,-1.646257e-4,2.532036e-4,2.041706e-4,-4.366047e-4,8.909181e-4,0.0420945,0.06040644,0.03906075,0.05345171,0.03416597,0.009322172,0.003821089,0.006648589,0.01135057,0.009376426
Feedback,1,1,20,f,2021.2.3,2021_Nov_16_1219,trial,3,21,right,congruent,congruent,n,Feedback,TRUE,n,TRUE,367.0622000354342,NA,4.65435e-4,-2.952868e-4,8.945495e-4,-2.264704e-4,-5.426991e-4,-5.080125e-4,-4.851432e-4,-2.870061e-4,-2.955506e-5,9.464005e-4,0.001812678,6.677364e-4,-4.362699e-4,-0.001079077,-2.930064e-4,0.00131203,0.002393004,6.673683e-4,9.000669e-4,0.007608747
Feedback,1,1,20,f,2021.2.3,2021_Nov_16_1219,trial,3,22,left,congruent,congruent,g,Feedback,TRUE,g,TRUE,678.7551000597889,NA,0.001209882,-6.582777e-4,5.276783e-4,-1.913817e-4,-6.416049e-4,-3.785244e-5,5.077994e-4,0.001461853,1.424062e-4,0.001017485,0.002806643,4.14958e-4,0.00122607,0.001330967,0.002841216,0.001908703,0.001498398,0.004183458,0.003889013,0.003118115
Feedback,1,1,20,f,2021.2.3,2021_Nov_16_1219,trial,3,23,right,congruent,congruent,j,Feedback,TRUE,n,FALSE,518.6929000192324,NA,5.303782e-4,-1.789548e-4,-6.631436e-4,-2.734785e-4,-8.539825e-4,-7.54534e-4,4.558684e-5,2.491625e-4,3.053029e-4,-2.127881e-4,-0.002811562,-0.003020623,-0.002555121,-0.001549579,-6.252676e-4,-0.001406529,-0.002602552,-0.002425855,-0.002543109,-3.02936e-4
Feedback,1,1,20,f,2021.2.3,2021_Nov_16_1219,trial,3,24,left,congruent,incongruent,f,Feedback,TRUE,f,TRUE,502.43619998218514,NA,1.393338e-4,-1.389568e-4,1.66286e-4,7.957011e-5,7.628736e-4,-6.475572e-4,-6.555167e-4,3.374205e-5,2.569964e-4,-4.453128e-4,5.5693e-4,-0.004247352,-0.00462543,-0.003171472,-0.003636637,-0.00392528,-0.00136292,-0.00538911,-0.007542211,-0.005626284
Feedback,1,1,20,f,2021.2.3,2021_Nov_16_1219,trial,3,25,right,incongruent,congruent,n,Feedback,TRUE,n,TRUE,502.14249995769933,NA,0.004053957,0.005625504,0.001322724,7.968887e-4,-5.972125e-4,-0.00107478,2.116368e-4,-3.46848e-4,-7.941471e-4,-7.933797e-4,0.09773765,0.07084637,0.0381669,0.1432374,0.1231838,0.04437649,0.01625428,0.03230206,0.02920257,0.01719154
Feedback,1,1,20,f,2021.2.3,2021_Nov_16_1219,trial,3,26,left,congruent,congruent,f,Feedback,TRUE,f,TRUE,813.7804999714717,NA,0.006739249,-0.002883761,-0.001586516,-0.003992587,-0.003589313,-0.003089637,-0.003446,-0.003116432,-0.003303583,-0.00274983,4.393533e-4,0.002739099,0.005245847,0.002287824,0.003341007,0.004183853,0.002446865,0.00228429,0.002465018,0.005741781
Feedback,1,1,20,f,2021.2.3,2021_Nov_16_1219,trial,3,27,right,congruent,congruent,n,Feedback,TRUE,n,TRUE,373.60900006024167,NA,1.653547e-4,0.001014813,3.362636e-4,4.816474e-5,3.705083e-4,4.041574e-4,5.956779e-4,1.129461e-5,-5.376176e-5,0.00237087,-7.163845e-4,0.004093117,-1.643528e-4,0.004305482,0.006355486,9.192247e-5,-0.002494029,0.001107714,-0.002553474,-0.001052425
Feedback,1,1,20,f,2021.2.3,2021_Nov_16_1219,trial,3,28,left,congruent,incongruent,g,Feedback,TRUE,g,TRUE,709.3190999585206,NA,-0.001576041,7.041451e-4,4.134378e-4,-4.235182e-4,-9.496072e-4,-6.648935e-4,-0.002091334,-0.001070101,-0.001045211,-8.192377e-4,0.001046935,0.005329602,0.05850047,0.02134978,0.03895393,0.02685656,0.01301616,0.006045102,0.004963193,0.00474593
Feedback,1,1,20,f,2021.2.3,2021_Nov_16_1219,trial,3,29,right,incongruent,incongruent,n,Feedback,TRUE,n,TRUE,501.0781000019049,NA,3.913213e-4,0.001814904,4.574629e-4,8.435473e-4,-1.307554e-5,0.004921,9.736987e-4,0.001492643,3.605853e-4,-4.058441e-4,0.004709405,-0.004296017,9.342395e-4,-0.003428492,5.400856e-4,-0.00434215,-0.004862773,-0.002910411,-0.002655192,-0.002835488
Feedback,1,1,20,f,2021.2.3,2021_Nov_16_1219,trial,3,30,left,incongruent,incongruent,g,Feedback,TRUE,g,TRUE,588.8351999456063,NA,-7.228765e-4,-7.431346e-4,0.002979596,0.002957172,5.302732e-4,0.003239217,0.001900545,9.503399e-4,0.002213805,5.251118e-4,0.001755257,0.001082539,0.007590118,0.05778878,0.07108059,0.008513337,0.02405191,0.01128427,0.01867928,0.02016743
Feedback,1,1,20,f,2021.2.3,2021_Nov_16_1219,trial,3,31,right,incongruent,incongruent,j,Feedback,TRUE,j,TRUE,572.6996999583209,NA,-0.001285861,-0.001015107,-7.713574e-4,-0.001082947,-0.001624538,0.006646879,0.002343785,9.761816e-4,1.968706e-4,0.002870364,-7.161871e-7,-7.327078e-4,-1.341058e-4,-2.503162e-4,0.001010137,0.05673353,0.06049537,0.05226948,0.05698171,0.01885255
Feedback,1,1,20,f,2021.2.3,2021_Nov_16_1219,trial,3,32,left,incongruent,congruent,g,Feedback,TRUE,g,TRUE,460.2822000160811,NA,-2.677378e-4,-4.259124e-5,-1.668278e-4,-6.735327e-4,-9.517127e-4,2.841663e-4,-6.674149e-4,0.003289099,4.536978e-4,6.107748e-4,4.76273e-4,-4.595283e-4,0.001275756,3.785074e-4,4.069004e-4,3.490809e-4,4.264854e-4,0.02289334,0.009193472,0.04814317
Feedback,1,1,20,f,2021.2.3,2021_Nov_16_1219,trial,3,33,right,congruent,incongruent,j,Feedback,TRUE,n,FALSE,427.87710000993684,NA,-8.338992e-4,2.00666e-4,-2.915543e-4,0.002872838,-0.001472715,-8.420586e-4,-0.001154308,3.709008e-4,-6.936155e-4,0.002248863,-3.185119e-4,8.477974e-4,5.062521e-4,0.03738575,0.02411579,0.006876608,0.0140264,0.01990466,0.01246305,0.02160734
Feedback,1,1,20,f,2021.2.3,2021_Nov_16_1219,trial,3,34,left,incongruent,congruent,g,Feedback,TRUE,g,TRUE,387.8229000256397,NA,2.34175e-4,-5.852571e-5,-7.966206e-4,0.00577939,0.005552088,0.001430809,4.170472e-4,3.249757e-4,9.567123e-4,0.001244341,5.555693e-4,0.001631919,0.001911717,0.004510572,0.1109095,0.03760237,0.03917764,0.04910403,0.03670101,0.01560109
Feedback,1,1,20,f,2021.2.3,2021_Nov_16_1219,trial,3,35,right,congruent,congruent,j,Feedback,TRUE,j,TRUE,419.4607000099495,NA,1.593963e-4,-5.785457e-4,-0.001598548,-3.304281e-4,-4.27884e-4,-1.960474e-4,-6.878299e-4,7.406976e-4,-0.00101417,-9.58161e-4,4.142721e-4,-7.241822e-4,-9.304716e-4,-0.00178881,-0.001330879,-0.001010274,-5.373312e-4,-0.001360941,-7.919143e-4,-2.390582e-4
Feedback,1,1,20,f,2021.2.3,2021_Nov_16_1219,trial,3,36,left,congruent,congruent,f,Feedback,TRUE,f,TRUE,411.07249999186,NA,-9.675913e-4,-4.24311e-4,9.147322e-4,0.001110713,-2.270732e-4,-6.791365e-4,-0.001516209,9.784591e-5,-0.002315829,-0.001089647,9.174767e-4,3.745643e-4,0.03495806,0.05326434,0.03545316,0.06280825,0.0345646,0.01353229,0.003464309,0.009904214
Feedback,1,1,20,f,2021.2.3,2021_Nov_16_1219,trial,3,37,right,congruent,incongruent,n,Feedback,TRUE,n,TRUE,562.7762000658549,NA,6.037832e-4,8.535665e-4,-1.655216e-5,0.00132807,4.317651e-4,0.003841812,4.957556e-4,-7.884274e-5,0.00115407,1.563779e-4,0.002014372,4.756041e-4,0.002731694,0.001486786,7.724818e-4,0.001608364,-8.200377e-4,8.451282e-4,-0.001888659,-0.001044329
Feedback,1,1,20,f,2021.2.3,2021_Nov_16_1219,trial,3,38,left,incongruent,incongruent,f,Feedback,TRUE,f,TRUE,546.5398000087589,NA,-5.333135e-4,-7.617476e-4,1.498575e-4,5.978858e-6,-3.37908e-4,-1.88807e-4,2.503381e-4,9.497139e-5,1.493362e-4,6.862963e-4,0.001215625,7.456937e-4,-0.001041599,-0.001515103,7.165088e-4,-6.09234e-4,3.33938e-4,-7.418308e-4,-7.492811e-4,5.963068e-4
Feedback,1,1,20,f,2021.2.3,2021_Nov_16_1219,trial,3,39,right,incongruent,congruent,j,Feedback,TRUE,j,TRUE,530.2902000839822,NA,6.845193e-4,5.59639e-4,3.391823e-4,4.866759e-4,0.00152066,0.001109002,3.842267e-4,0.004532914,0.004338703,-9.588548e-5,-6.991862e-4,0.001016268,-8.589984e-5,6.458587e-4,6.335392e-5,0.003283457,5.263563e-4,0.04428011,0.05506428,0.03985212
Feedback,1,1,20,f,2021.2.3,2021_Nov_16_1219,trial,3,40,left,congruent,congruent,f,Feedback,TRUE,f,TRUE,426.16610002005496,NA,-3.811873e-4,-6.214126e-4,-1.431797e-4,-7.122438e-4,-4.134455e-4,-9.39416e-4,-8.722909e-4,-7.08889e-4,-1.812815e-4,3.446499e-4,0.001331762,0.002330704,1.953754e-4,-3.974945e-4,-2.502245e-4,-1.1793e-4,7.011497e-4,5.895121e-4,2.220822e-4,0.001754224
Feedback,1,1,20,f,2021.2.3,2021_Nov_16_1219,trial,3,41,right,congruent,congruent,j,Feedback,TRUE,j,TRUE,377.8424999909473,NA,-4.893404e-4,-3.012009e-4,1.793269e-4,0.001284987,2.284825e-4,0.001399857,4.737268e-4,0.004716725,0.004674847,0.001167076,-8.484954e-5,0.001193368,0.001346434,1.180879e-4,-2.98002e-4,0.002443798,0.001143719,0.04467786,0.06408382,0.0424984
Feedback,1,1,20,f,2021.2.3,2021_Nov_16_1219,trial,3,42,left,congruent,congruent,g,Feedback,TRUE,g,TRUE,585.5663000256754,NA,4.108716e-5,9.588697e-4,-1.504864e-4,0.001270605,2.245111e-4,-8.496083e-5,0.001401098,0.002684631,0.004654759,0.002602531,-0.001778369,-0.001999356,-0.001291589,5.744903e-4,-6.500224e-4,-1.499522e-4,0.001051015,0.001864485,0.06995302,0.0717572
Feedback,1,1,20,f,2021.2.3,2021_Nov_16_1219,trial,3,43,right,congruent,congruent,j,Feedback,TRUE,j,TRUE,425.3488999675028,NA,7.095141e-5,3.534486e-5,0.00103329,0.001594622,0.002096207,7.22518e-4,-2.689171e-4,0.003943664,0.003679398,0.001057973,-0.006704795,-0.006932129,-0.005875675,-0.003595106,-0.005454346,-0.006050796,-0.003855076,0.04264665,0.03073372,0.03382795
Feedback,1,1,20,f,2021.2.3,2021_Nov_16_1219,trial,3,44,left,congruent,congruent,g,Feedback,TRUE,g,TRUE,441.12000009045005,NA,-0.001582418,-8.471981e-4,-0.001120839,-2.505018e-4,-5.025598e-4,-9.77882e-4,-0.001341978,-6.781092e-4,-0.001622877,-0.001486972,-0.001508408,-5.195579e-4,-6.116377e-4,-9.387094e-4,-0.001216593,-9.040942e-4,-6.067259e-4,-5.506957e-4,-2.836676e-4,4.072464e-5
Feedback,1,1,20,f,2021.2.3,2021_Nov_16_1219,trial,3,45,right,congruent,incongruent,j,Feedback,TRUE,n,FALSE,504.84930007951334,NA,-0.001244026,-5.73942e-4,-7.498076e-4,-0.001134502,-9.67382e-4,-0.001004112,-0.001020044,-0.001185243,-0.001555793,-4.783135e-4,0.002451395,0.01089876,0.009806027,0.00242344,0.008963972,0.008944929,0.006952074,0.001766381,0.002999354,0.004584963
Feedback,1,1,20,f,2021.2.3,2021_Nov_16_1219,trial,3,46,left,incongruent,congruent,g,Feedback,TRUE,g,TRUE,432.5535999960266,NA,0.002740315,6.152682e-4,1.713699e-4,1.485655e-4,6.096987e-4,3.021944e-4,5.995508e-4,7.55765e-4,-3.728061e-5,2.557023e-4,9.950141e-4,0.003245626,0.004102789,0.001926994,0.002860789,7.296966e-4,0.002324346,0.001008484,6.765604e-4,-8.353142e-4
Feedback,1,1,20,f,2021.2.3,2021_Nov_16_1219,trial,3,47,right,congruent,incongruent,j,Feedback,TRUE,j,TRUE,448.29330005450174,NA,-3.441991e-4,-2.885705e-4,0.001781737,0.001736727,6.121702e-4,-5.242506e-4,-7.949979e-5,3.190318e-4,-0.001004457,0.001029611,-0.005236429,-0.00414957,0.01159772,0.0522595,0.01101868,0.0293747,0.02301879,0.009395589,-0.002095561,0.001133651
Feedback,1,1,20,f,2021.2.3,2021_Nov_16_1219,trial,3,48,left,incongruent,incongruent,f,Feedback,TRUE,f,TRUE,527.9709000024013,NA,2.734084e-4,2.393133e-4,0.00216587,0.002409376,0.001372701,1.047009e-4,7.389106e-4,-6.372961e-4,0.002497083,-1.470633e-4,0.001110105,0.002629685,0.03948352,0.04434527,0.01878662,0.04396518,0.04460744,0.0319388,0.01224021,0.009075716
Feedback,1,1,20,f,2021.2.3,2021_Nov_16_1219,trial,3,49,right,incongruent,congruent,n,Feedback,TRUE,n,TRUE,375.7193000637924,NA,-0.001214001,-2.553607e-4,-2.145183e-4,-0.001077166,0.001017526,5.042686e-4,-9.917207e-4,-6.629787e-4,-0.001086633,-9.147143e-4,0.001124896,0.001349291,9.243255e-4,7.407605e-4,0.001007098,0.005130296,7.148059e-4,0.005182412,0.002925238,-6.035832e-5
Feedback,1,1,20,f,2021.2.3,2021_Nov_16_1219,trial,3,50,left,congruent,incongruent,g,Feedback,TRUE,g,TRUE,655.5685999337584,NA,0.003038083,0.003180029,0.00234342,8.477413e-4,0.001195443,-1.693326e-4,6.943746e-4,1.00306e-4,-6.714126e-4,0.001748916,0.00564982,0.05435302,0.01955369,0.03826275,0.02393023,0.009076685,2.517905e-4,0.003737119,0.003720633,0.005609347
Feedback,1,1,20,f,2021.2.3,2021_Nov_16_1219,trial,3,51,right,incongruent,congruent,n,Feedback,TRUE,n,TRUE,431.07059999601915,NA,0.001644348,-3.143016e-4,0.003134972,-2.749101e-5,2.383499e-4,2.844119e-5,4.323779e-4,0.001070368,5.374327e-4,4.11998e-4,0.001679948,5.30489e-4,0.006462426,0.01060717,0.001688931,0.005278129,0.006545064,9.240035e-4,-8.46134e-4,-0.001604584
Feedback,1,1,20,f,2021.2.3,2021_Nov_16_1219,trial,3,52,left,congruent,congruent,f,Feedback,TRUE,f,TRUE,534.8145000752993,NA,1.632953e-4,0.002067561,-1.632071e-4,-0.001430894,0.002234036,0.001563409,0.002278131,-2.912981e-4,0.001155894,4.699454e-5,3.843131e-4,0.002966426,0.01051157,0.004275838,0.03024351,0.09593753,0.01451086,0.02552176,0.03332216,0.04035816
Feedback,1,1,20,f,2021.2.3,2021_Nov_16_1219,trial,3,53,right,congruent,incongruent,j,Feedback,TRUE,j,TRUE,470.8477000240234,NA,8.774572e-5,7.089891e-4,8.186609e-4,1.841264e-4,0.00536141,0.002305507,0.001053761,0.001013309,5.544024e-5,6.999825e-4,0.001300677,0.00232855,0.001983298,0.007088511,0.07944401,0.03389326,0.04664579,0.02987885,0.01468364,0.00282411
