experiment_name,participant,session,age,gender,psychopy_version,date,trial_block,block,trial,hand,congruencyNmin1,congruency,correct_key,feedback,made,response,correct,rt,extra_keys,Segment,Corr_1,Corr_2,Corr_3,Corr_4,Corr_5,Corr_6,Corr_7,Corr_8,Corr_9,Corr_10,Zygo_1,Zygo_2,Zygo_3,Zygo_4,Zygo_5,Zygo_6,Zygo_7,Zygo_8,Zygo_9,Zygo_10
Feedback,1,1,20,f,2021.2.3,2021_Nov_16_1219,practice,1,1,left,NA,incongruent,g,Feedback,FALSE,NA,NA,NA,"[('f', 0.07909950002795085)]",1,9.974521e-4,0.001877396,0.009155259,0.004672327,6.799225e-4,0.001207067,0.002030562,6.158317e-4,6.860322e-4,7.126618e-4,6.078776e-4,0.002288111,0.02380946,0.007640553,0.004822367,0.002207026,0.002200904,0.002219291,8.107856e-4,0.002435566
Feedback,1,1,20,f,2021.2.3,2021_Nov_16_1219,practice,1,2,right,incongruent,congruent,n,Feedback,TRUE,n,TRUE,582.0363000384532,NA,2,4.484835e-4,-5.411984e-4,-0.001007286,-2.676456e-4,-5.247891e-4,1.453157e-4,5.99788e-4,-1.386413e-4,-7.925812e-4,-1.417401e-4,7.272153e-4,0.001335473,-4.32391e-4,0.001954405,3.969853e-4,0.001390775,-4.030525e-4,3.075174e-4,-1.32231e-4,-4.125737e-4
Feedback,1,1,20,f,2021.2.3,2021_Nov_16_1219,practice,1,3,left,congruent,incongruent,f,Feedback,TRUE,f,TRUE,789.6834000130184,NA,3,0.00651187,7.860529e-4,1.347574e-4,6.994576e-4,8.273363e-4,8.739062e-4,6.48034e-5,2.269158e-4,4.181297e-4,8.293822e-4,0.01074494,0.002501817,0.002269937,0.001263552,9.487001e-4,4.058073e-4,2.106538e-4,8.234917e-4,0.001058906,0.001684233
Feedback,1,1,20,f,2021.2.3,2021_Nov_16_1219,practice,1,4,right,incongruent,incongruent,j,Feedback,TRUE,j,TRUE,477.444100077264,NA,4,-9.020893e-4,-2.98474e-4,-7.360167e-4,-7.417143e-4,-0.001050912,9.128447e-4,-4.476893e-4,-4.574521e-4,0.003631072,7.82439e-4,9.898015e-4,0.002111495,0.001151073,0.001722162,8.300815e-4,0.001385235,0.001488947,6.778894e-4,0.001101909,0.001695801
Feedback,1,1,20,f,2021.2.3,2021_Nov_16_1219,practice,1,5,left,incongruent,incongruent,g,Feedback,TRUE,g,TRUE,605.2893999731168,NA,5,2.167351e-4,4.065596e-5,-6.534341e-4,-7.395528e-4,0.004202971,0.00112638,7.79018e-4,-2.183253e-6,-5.182121e-4,0.003553513,-1.288392e-4,5.023375e-4,-3.079078e-4,-1.528799e-4,0.002927285,0.005219931,-4.29899e-4,-9.698146e-4,2.314083e-4,0.0078221
Feedback,1,1,20,f,2021.2.3,2021_Nov_16_1219,practice,1,6,right,incongruent,incongruent,j,Feedback,TRUE,j,TRUE,564.8987999884412,NA,6,1.162612e-4,-3.714301e-4,1.426376e-4,-1.57235e-4,-7.246075e-4,1.966113e-4,1.050055e-4,3.758287e-4,3.411982e-4,-1.740034e-4,8.564414e-4,1.883705e-4,7.597771e-4,9.886178e-4,0.00131322,0.001363372,-3.97582e-4,5.240773e-4,5.288466e-4,0.0011545
Feedback,1,1,20,f,2021.2.3,2021_Nov_16_1219,practice,1,7,left,incongruent,incongruent,f,Feedback,TRUE,f,TRUE,572.7680000127293,NA,7,-0.005463077,-0.005637836,-0.004762232,-0.004730399,-0.005356428,-0.005170439,-0.005603133,-0.00576588,-0.005536458,-0.003467659,-0.0104678,-0.009575201,-0.009545778,-0.008620148,-0.009325991,-0.00969184,-0.009974821,-0.01016364,-0.00991216,-0.009905376
Feedback,1,1,20,f,2021.2.3,2021_Nov_16_1219,practice,1,8,right,incongruent,congruent,n,Feedback,TRUE,n,TRUE,380.396500055213,NA,8,0.003884697,-8.175964e-5,-6.298232e-5,-6.255244e-4,-2.574986e-4,-3.658014e-4,5.146465e-5,-3.675998e-4,-5.362867e-4,-3.212318e-4,0.007957704,4.268682e-4,-0.001781928,-0.001488093,-6.741136e-4,-5.740686e-4,-1.682723e-4,-0.001429578,-0.001292423,-0.001450271
Feedback,1,1,20,f,2021.2.3,2021_Nov_16_1219,practice,1,9,left,congruent,congruent,f,Feedback,TRUE,f,TRUE,508.06340004783124,NA,9,0.003973129,0.001655094,-3.141834e-4,-6.372681e-4,7.63451e-4,2.003384e-4,1.218147e-5,3.543869e-5,-3.358469e-4,0.001241126,0.007673475,0.004175099,5.286257e-4,0.001029255,3.085181e-4,3.14587e-4,-4.412e-4,6.829808e-5,-2.711163e-4,-5.272068e-4
Feedback,1,1,20,f,2021.2.3,2021_Nov_16_1219,practice,1,10,right,congruent,incongruent,j,Feedback,TRUE,j,TRUE,587.8624000470154,NA,10,-5.073706e-4,-5.819977e-4,-7.704729e-4,-7.082922e-4,-3.221855e-4,-3.898987e-4,-6.073609e-4,0.002889335,-5.599835e-4,-0.001180626,7.416608e-4,1.920336e-4,-8.084045e-4,-3.626363e-4,-7.165992e-5,1.528857e-4,3.610302e-4,0.008772978,0.00187861,3.079376e-4
Feedback,1,1,20,f,2021.2.3,2021_Nov_16_1219,practice,1,11,left,incongruent,congruent,f,Feedback,TRUE,f,TRUE,443.62700002966426,NA,11,6.342931e-4,0.004572124,0.002460213,0.001348733,3.799598e-4,5.813437e-4,-3.41809e-4,3.686249e-4,-3.960935e-4,1.049191e-4,4.497612e-4,0.003122971,0.009514062,0.002065076,6.597998e-4,8.446738e-4,4.725448e-4,4.500969e-4,3.200159e-4,7.157548e-4
Feedback,1,1,20,f,2021.2.3,2021_Nov_16_1219,practice,1,12,right,congruent,congruent,n,Feedback,TRUE,j,FALSE,459.3590999720618,NA,12,-5.000478e-4,-5.148139e-4,1.680201e-4,3.673637e-4,4.512747e-5,0.003917198,8.301118e-4,3.173875e-4,4.809746e-4,-1.44437e-4,-1.14257e-4,2.026537e-4,1.048892e-4,-4.683619e-4,7.49286e-4,0.007463842,0.001814046,2.595572e-4,-4.269803e-4,2.33457e-4
Feedback,1,1,20,f,2021.2.3,2021_Nov_16_1219,practice,1,13,left,congruent,congruent,g,Feedback,TRUE,f,FALSE,914.5824000588618,NA,13,-5.383675e-4,-7.341662e-5,1.24567e-4,3.278335e-4,-3.825428e-4,-6.383794e-4,4.015069e-4,6.420594e-4,0.00362847,0.001190561,5.023279e-4,0.001861216,8.425985e-4,0.001385498,5.346807e-4,0.001548598,0.001536523,0.002739182,0.008886086,0.005095082
Feedback,1,1,20,f,2021.2.3,2021_Nov_16_1219,practice,1,14,right,congruent,incongruent,j,Feedback,TRUE,j,TRUE,586.0347000416366,NA,14,5.24397e-4,0.002917852,4.367155e-4,0.001213599,3.191405e-4,5.306718e-4,0.001195852,6.373378e-4,4.92577e-4,5.885924e-4,0.002530192,4.509084e-4,-4.053349e-6,-0.001439787,5.317286e-4,-4.748944e-4,-0.001102029,5.655803e-4,3.872914e-4,4.255224e-4
Feedback,1,1,20,f,2021.2.3,2021_Nov_16_1219,practice,1,15,left,incongruent,congruent,g,Feedback,TRUE,g,TRUE,617.9126000497492,NA,15,0.003005331,9.509529e-4,4.194361e-4,8.210457e-4,9.584654e-4,0.006011921,0.003421155,0.001418186,8.668323e-4,4.817973e-4,0.008058991,0.001469488,8.41453e-4,0.00074744640000000005,0.001229978,0.005232996,0.007648827,0.001690076,6.607485e-4,0.00056024480000000005
Feedback,1,1,20,f,2021.2.3,2021_Nov_16_1219,practice,1,16,right,congruent,congruent,n,Feedback,TRUE,n,TRUE,649.5243000099433,NA,16,7.054466e-5,5.554464e-4,3.091369e-4,0.002605233,0.00291599,5.415855e-4,6.80011e-5,2.210443e-4,6.199456e-4,0.001203465,8.170418e-4,0.002220689,-8.308375e-5,0.002683186,0.005773607,0.001939378,-0.00134246,1.053791e-4,7.88833e-4,0.001312359
Feedback,1,1,20,f,2021.2.3,2021_Nov_16_1219,practice,1,17,left,congruent,incongruent,g,Feedback,TRUE,g,TRUE,593.3045000419952,NA,17,5.828043e-4,8.454061e-4,0.005078375,0.002658433,7.121769e-4,0.002048092,0.002561135,3.17881e-4,0.006329179,1.541339e-7,-3.290708e-4,7.444734e-4,1.398784e-4,4.170793e-4,0.001171772,0.002385021,0.006047041,0.001702339,0.002596882,0.001785295
Feedback,1,1,20,f,2021.2.3,2021_Nov_16_1219,practice,1,18,right,incongruent,congruent,j,Feedback,TRUE,j,TRUE,489.0679999953136,NA,18,0.001381961,0.003276073,5.788582e-4,0.002113286,1.426153e-4,1.77897e-4,0.002411125,3.045162e-4,0.00125301,6.104754e-4,0.005356198,0.002559918,0.003875404,-1.640923e-4,3.038638e-4,-5.669747e-4,0.003434651,6.193896e-4,0.004830736,-3.63044e-4
Feedback,1,1,20,f,2021.2.3,2021_Nov_16_1219,practice,1,19,left,congruent,congruent,f,Feedback,TRUE,f,TRUE,544.6216000127606,NA,19,3.956165e-5,8.706111e-4,-2.494634e-4,-2.504076e-4,0.006015195,0.00107429,5.255609e-4,0.002742251,2.732517e-4,6.830669e-5,5.041119e-4,0.002397923,0.001693527,0.001492606,0.009216022,0.00313139,0.003549247,0.003257762,0.002632589,0.003923944
Feedback,1,1,20,f,2021.2.3,2021_Nov_16_1219,practice,1,20,right,congruent,incongruent,n,Feedback,TRUE,n,TRUE,480.96160002751253,NA,20,7.456668e-4,-4.677649e-5,3.442393e-4,0.004078082,0.002365638,2.510686e-4,9.474192e-4,5.086946e-4,1.496662e-4,4.356456e-4,-5.605887e-5,3.21001e-4,0.007828907,0.004513772,0.001791863,-0.001023084,4.027865e-4,-4.516805e-4,5.353203e-4,8.056418e-4
Feedback,1,1,20,f,2021.2.3,2021_Nov_16_1219,practice,1,21,left,incongruent,incongruent,g,Feedback,TRUE,g,TRUE,576.2904000584967,NA,21,-1.385395e-4,0.004716724,0.003930041,4.270012e-4,0.002203243,-4.781743e-4,0.003837452,0.002878378,3.04613e-4,0.00213177,-6.036859e-4,2.62487e-4,0.005419984,-3.72485e-4,-0.001206707,-0.001130869,1.53278e-4,0.001929618,8.471105e-4,7.275851e-4
Feedback,1,1,20,f,2021.2.3,2021_Nov_16_1219,practice,1,22,right,incongruent,incongruent,n,Feedback,TRUE,n,TRUE,575.968399993144,NA,22,0.002463977,0.001192783,0.001006718,1.275223e-4,0.004983652,0.002585073,6.180622e-4,2.033929e-4,-4.031897e-4,2.979045e-5,0.006622036,0.004529616,0.001273363,0.002771622,0.004984619,0.002145744,8.790208e-4,1.524923e-4,5.104953e-4,-5.385734e-4
Feedback,1,1,20,f,2021.2.3,2021_Nov_16_1219,practice,1,23,left,incongruent,incongruent,f,Feedback,TRUE,f,TRUE,535.6448999955319,NA,23,-0.002474921,-0.005414302,-0.005438549,-0.005322845,-0.003416976,-0.005242283,-0.004254158,-0.004164372,-0.005094068,-0.005276181,-0.002377206,-0.005538367,-0.005708784,-0.005375672,0.001011488,-0.005819752,-0.003703127,3.912058e-4,-0.00585271,-0.005356501
Feedback,1,1,20,f,2021.2.3,2021_Nov_16_1219,practice,1,24,right,incongruent,incongruent,n,Feedback,TRUE,n,TRUE,463.29260006314144,NA,24,0.002937536,-5.768181e-4,0.002282508,0.002121724,-0.001461955,0.001270464,-7.112045e-4,-3.267124e-4,-0.00102901,-0.001430778,0.006938363,0.001300578,0.002175802,0.003779462,0.00991433,0.01418297,0.002823384,0.003588645,0.001383639,0.001439387
Feedback,1,1,20,f,2021.2.3,2021_Nov_16_1219,trial,1,1,right,incongruent,congruent,j,Feedback,TRUE,j,TRUE,519.7193000349218,NA,25,-0.00127483,-0.001312753,-8.740013e-4,-0.001151735,-0.001238143,-0.001185393,-0.001346692,0.002407764,3.179396e-5,-9.192829e-4,0.002720644,0.002441368,0.004053913,0.001246157,7.768248e-4,0.004320295,0.002937194,0.003772946,3.434303e-4,2.035918e-4
Feedback,1,1,20,f,2021.2.3,2021_Nov_16_1219,trial,1,2,left,congruent,congruent,g,Feedback,TRUE,g,TRUE,615.4222000623122,NA,26,0.001192862,-2.527465e-4,-5.175003e-4,-7.103044e-4,-4.588978e-4,0.004130485,4.14626e-4,0.003417604,9.466645e-4,0.002525477,0.005744476,0.003170513,5.95866e-4,-1.338054e-5,0.001255629,0.004472668,0.001634784,0.002050344,0.001741331,0.003927806
Feedback,1,1,20,f,2021.2.3,2021_Nov_16_1219,trial,1,3,right,congruent,congruent,n,Feedback,TRUE,n,TRUE,743.2154000853186,NA,27,-0.001355415,-0.002382022,-6.725336e-4,-0.002622837,-0.001636682,4.21938e-4,0.003023048,-0.001268388,-0.002074056,-0.001328761,-0.00243892,0.01670393,0.002124956,0.002689855,-0.002241783,0.005317017,0.00940288,0.01115149,0.006704792,-0.002052266
Feedback,1,1,20,f,2021.2.3,2021_Nov_16_1219,trial,1,4,left,congruent,incongruent,g,Feedback,TRUE,f,FALSE,574.9610999482684,NA,28,8.102889e-4,0.001557388,0.005587924,7.083096e-4,-9.542704e-5,0.001478129,6.350543e-4,5.860772e-4,0.001265691,3.392404e-4,-0.007663686,-0.004561042,-0.008782605,-0.0106795,-0.007424748,-0.01099269,-5.504619e-4,-0.001611879,-0.013683,-0.01607555
Feedback,1,1,20,f,2021.2.3,2021_Nov_16_1219,trial,1,5,right,incongruent,incongruent,n,Feedback,TRUE,n,TRUE,494.53360005281866,NA,29,0.005040674,0.001297323,0.001695456,0.001991956,-4.343055e-4,0.001968427,0.001653139,-2.003259e-4,-8.409959e-5,0.00188837,0.01177485,0.006742221,-0.00156562,-0.00406302,-0.001524611,-0.001165336,-0.001169577,-0.003263992,-0.002927377,-0.003168898
Feedback,1,1,20,f,2021.2.3,2021_Nov_16_1219,trial,1,6,left,incongruent,congruent,g,Feedback,TRUE,g,TRUE,430.4052999941632,NA,30,2.334691e-4,-2.49807e-4,0.003776344,0.002470097,5.872645e-4,-2.109744e-4,8.82626e-5,1.735017e-4,-6.885179e-4,-6.564794e-4,-0.002356636,-0.005337676,0.001254327,-0.002322772,-0.003214715,3.174329e-4,-0.005882563,-0.005010521,-0.006467844,-0.006026104
Feedback,1,1,20,f,2021.2.3,2021_Nov_16_1219,trial,1,7,right,congruent,congruent,j,Feedback,TRUE,j,TRUE,542.0830000075512,NA,31,-2.895074e-4,-3.259069e-4,1.744542e-4,2.888853e-4,-8.332497e-5,-1.442838e-4,-1.433666e-4,1.814424e-4,4.038929e-4,-5.702851e-4,0.001019854,-4.242228e-4,5.269097e-4,0.003573283,0.002202807,0.002403916,0.001206075,8.029568e-4,0.001119426,0.00357808
Feedback,1,1,20,f,2021.2.3,2021_Nov_16_1219,trial,1,8,left,congruent,incongruent,g,Feedback,TRUE,g,TRUE,485.87230005068704,NA,32,6.895228e-4,-4.621891e-4,-2.360757e-4,1.092043e-4,7.339581e-4,0.005783586,9.275808e-4,8.263253e-5,6.255389e-4,4.784935e-4,0.002400185,0.002939158,0.003430515,8.164998e-4,-2.349131e-4,0.004248179,0.007149594,7.123051e-4,4.102576e-4,3.324852e-4
Feedback,1,1,20,f,2021.2.3,2021_Nov_16_1219,trial,1,9,right,incongruent,congruent,n,Feedback,TRUE,n,TRUE,549.693200038746,NA,33,1.125601e-4,0.006290443,0.003923475,0.001074844,0.002673737,5.165448e-4,0.001776061,0.001355579,0.001320018,4.390017e-4,9.208224e-4,0.002188419,0.01191376,0.00165963,-0.001906341,0.002633512,0.00181121,5.948134e-4,0.002142547,0.00235168
Feedback,1,1,20,f,2021.2.3,2021_Nov_16_1219,trial,1,10,left,congruent,congruent,g,Feedback,TRUE,g,TRUE,653.1625000643544,NA,34,-0.002623757,-0.00248573,-6.308458e-4,-0.002717261,-0.001969611,-0.001436124,-0.002290046,-0.001682733,-0.002265958,0.002914876,-0.001543098,0.01435822,7.102452e-4,0.01700027,0.005164884,0.009696074,0.003566268,0.004432083,0.008300863,0.01703762
Feedback,1,1,20,f,2021.2.3,2021_Nov_16_1219,trial,1,11,right,congruent,incongruent,n,Feedback,TRUE,n,TRUE,773.0138000333682,NA,35,-8.113331e-4,7.817901e-4,-4.964129e-4,-8.973968e-5,-3.420087e-4,-1.457047e-4,0.01156294,0.009118496,0.005473313,-4.804414e-4,-0.01511068,-0.008464701,-0.01027238,-0.01039985,0.001384253,-0.01235193,-0.004825706,-0.007722393,-0.00294601,-0.004074277
Feedback,1,1,20,f,2021.2.3,2021_Nov_16_1219,trial,1,12,left,incongruent,congruent,f,Feedback,TRUE,g,FALSE,508.84980004047975,NA,36,-3.850509e-4,-6.311571e-4,0.001661407,-5.099874e-4,0.002197047,8.716574e-4,-1.495313e-4,-2.479437e-4,-6.014487e-4,1.899961e-4,0.001741381,-0.005509635,-0.01700018,-0.01267211,-0.01402183,-0.01066769,-0.01420393,-0.01962127,-0.01355919,-0.01289542
Feedback,1,1,20,f,2021.2.3,2021_Nov_16_1219,trial,1,13,right,congruent,incongruent,j,Feedback,TRUE,j,TRUE,548.5372000257485,NA,37,0.002187932,9.898897e-4,0.002519384,0.003967431,0.002255098,3.334091e-4,3.551485e-4,9.616914e-4,6.826159e-4,6.086228e-4,-0.00139446,-0.002781859,0.002732582,-0.005306787,-0.002885488,-0.001505865,-0.005717953,-0.00344217,-0.008406263,-0.008265437
Feedback,1,1,20,f,2021.2.3,2021_Nov_16_1219,trial,1,14,left,incongruent,incongruent,f,Feedback,TRUE,f,TRUE,556.2873000162654,NA,38,0.00308666,0.001780647,-0.002219202,-0.002137161,-0.002209698,-0.002402592,-0.002620985,-0.001778631,-0.00121546,-9.358637e-4,0.003977248,-0.001719628,-0.004412734,-0.002599349,-0.004602987,-0.003427878,-0.002596534,-0.00383686,-4.585707e-4,0.01038461
Feedback,1,1,20,f,2021.2.3,2021_Nov_16_1219,trial,1,15,right,incongruent,incongruent,j,Feedback,TRUE,j,TRUE,483.89069997938327,NA,39,-2.578071e-4,-2.944167e-4,-4.770758e-4,0.004288064,0.001302761,-8.729193e-5,-0.001076854,-0.001233243,-4.95245e-4,-9.975897e-4,6.345236e-4,0.005243177,0.002696057,0.005732621,0.004122481,0.006263127,0.007108528,0.002728756,0.006825061,0.004799181
Feedback,1,1,20,f,2021.2.3,2021_Nov_16_1219,trial,1,16,left,incongruent,incongruent,f,Feedback,TRUE,f,TRUE,547.7875000797212,NA,40,7.927946e-4,6.281142e-4,0.001108276,0.00324399,0.001839426,4.320287e-4,-3.056895e-4,-6.672235e-4,-4.028213e-4,-2.747375e-4,0.002392288,-8.109137e-4,2.462594e-4,0.001602562,4.653386e-4,-0.0023563,-0.002062559,-0.001193028,-2.339175e-4,-0.001380564
Feedback,1,1,20,f,2021.2.3,2021_Nov_16_1219,trial,1,17,right,incongruent,incongruent,n,Feedback,TRUE,n,TRUE,507.4396000127308,NA,41,0.005857748,0.002939522,0.003188777,2.898093e-4,8.851975e-4,0.00291239,1.760992e-4,3.666185e-4,0.002331683,3.644634e-4,0.002556256,0.007574218,2.622292e-4,0.003290552,0.003816804,0.003324562,-2.010665e-4,2.718233e-4,0.001861773,4.752381e-4
Feedback,1,1,20,f,2021.2.3,2021_Nov_16_1219,trial,1,18,left,incongruent,incongruent,g,Feedback,TRUE,f,FALSE,555.3094000206329,NA,42,-5.284634e-4,-3.161394e-4,-2.250258e-4,1.677489e-4,0.001123937,9.046069e-4,-1.837892e-4,-6.623333e-5,1.265334e-4,-4.075649e-4,0.002720265,0.002713947,0.002523069,0.003865913,0.00512292,6.748856e-4,0.002868465,0.003598953,1.145728e-4,0.001151809
Feedback,1,1,20,f,2021.2.3,2021_Nov_16_1219,trial,1,19,right,incongruent,incongruent,n,Feedback,TRUE,n,TRUE,498.80760005908064,NA,43,1.741387e-4,-2.677657e-5,1.711797e-4,-1.245987e-4,5.264862e-4,5.487462e-4,6.620153e-4,2.962681e-4,-8.082773e-4,-2.263333e-4,-0.002444721,-0.002843923,-0.002567491,-0.004246758,-0.003483979,-0.004544518,-0.004558791,-0.003505754,-0.003662877,-0.003813112
Feedback,1,1,20,f,2021.2.3,2021_Nov_16_1219,trial,1,20,left,incongruent,congruent,f,Feedback,TRUE,f,TRUE,554.8688999842852,NA,44,-4.082918e-6,-4.536115e-4,-4.191289e-4,0.002160616,0.004674592,5.079869e-4,-6.158956e-4,-4.567136e-5,6.911764e-5,2.771623e-4,0.001212179,9.31049e-4,0.001040951,0.002573443,0.006270087,0.003903935,0.002154794,0.001604866,2.09192e-4,0.00111312
Feedback,1,1,20,f,2021.2.3,2021_Nov_16_1219,trial,1,21,right,congruent,congruent,j,Feedback,TRUE,j,TRUE,450.5216000252401,NA,45,7.961063e-4,4.326148e-4,0.001607573,0.002534353,0.001001154,0.003579109,7.439536e-4,6.430988e-4,3.486224e-4,0.008477836,-6.951829e-4,3.767402e-4,-7.026542e-4,0.005685149,0.001926641,9.599079e-4,0.00106474,7.63467e-4,-3.171058e-4,0.006804305
Feedback,1,1,20,f,2021.2.3,2021_Nov_16_1219,trial,1,22,left,congruent,incongruent,g,Feedback,TRUE,g,TRUE,554.1750999982467,NA,46,-7.180553e-4,-1.787124e-4,-2.792911e-4,0.001413669,5.148184e-4,-3.089183e-4,3.382568e-4,-6.065858e-4,2.739208e-4,-0.001044086,-0.001066194,0.00103224,0.002325388,0.004880756,0.002418549,0.001329485,0.001152996,0.003075985,0.001379162,-4.103989e-5
Feedback,1,1,20,f,2021.2.3,2021_Nov_16_1219,trial,1,23,right,incongruent,congruent,n,Feedback,TRUE,n,TRUE,593.7718000495806,NA,47,-0.004473194,-5.350853e-4,-0.004773168,-0.003570331,-0.004298717,-0.005256125,-0.003410007,-0.004215173,-0.002960837,-0.003610813,0.00413883,0.001758745,0.001563825,3.016312e-4,0.001984201,-4.254272e-4,0.002360567,7.000188e-4,-4.199729e-5,5.260347e-4
Feedback,1,1,20,f,2021.2.3,2021_Nov_16_1219,trial,1,24,left,congruent,incongruent,g,Feedback,TRUE,g,TRUE,897.6565999910235,NA,48,8.610255e-4,4.511819e-4,8.033367e-5,1.857453e-4,5.215224e-4,8.210399e-4,0.001328077,8.472567e-5,7.114982e-4,0.001033761,-3.505109e-4,-3.672913e-4,6.237417e-4,3.557932e-5,-7.641247e-4,-3.413958e-4,-7.04783e-5,3.017597e-4,0.01002029,0.02169829
Feedback,1,1,20,f,2021.2.3,2021_Nov_16_1219,trial,1,25,right,incongruent,congruent,j,Feedback,TRUE,j,TRUE,529.2966999695636,NA,49,3.481575e-4,6.52912e-4,1.484121e-4,6.078101e-4,0.00231574,0.003182534,0.002095139,0.00155752,0.004895194,0.0031457,7.777745e-4,-9.541598e-5,3.400519e-4,7.452648e-4,0.002696145,0.01458848,0.01578463,0.01221178,0.009296278,0.008306669
Feedback,1,1,20,f,2021.2.3,2021_Nov_16_1219,trial,1,26,left,congruent,congruent,f,Feedback,TRUE,f,TRUE,593.0798999615945,NA,50,4.78446e-5,-6.164378e-5,-3.403295e-4,2.745336e-4,-1.24551e-4,1.61286e-4,5.008148e-4,5.336655e-4,-2.923909e-4,8.92994e-5,-3.593217e-4,-8.647128e-4,-0.001111469,-9.541782e-4,-0.001396341,-0.001283366,-0.001123641,-0.001927733,-8.400152e-4,-0.001717631
Feedback,1,1,20,f,2021.2.3,2021_Nov_16_1219,trial,1,27,right,congruent,congruent,n,Feedback,TRUE,n,TRUE,424.77419995702803,NA,51,-0.001739986,-0.001821304,-0.001999909,-0.001885129,-0.002296019,-0.001959118,-0.001553316,-0.001709804,-0.001464456,-0.001599015,-5.620017e-4,-3.505022e-4,-8.348306e-5,8.05275e-5,-9.608935e-4,-4.054555e-4,-5.233729e-4,4.774595e-4,9.46146e-4,8.570114e-4
Feedback,1,1,20,f,2021.2.3,2021_Nov_16_1219,trial,1,28,left,congruent,congruent,f,Feedback,FALSE,NA,NA,NA,NA,52,0.004504909,0.00156027,6.642921e-4,0.004006356,1.824414e-4,-4.577171e-5,0.00413204,0.001067992,-4.228149e-4,3.996415e-4,0.007577369,9.065205e-4,-7.614577e-4,-6.900327e-4,-0.001797785,-0.001743096,-0.001938529,-0.001897319,-0.001613996,-0.001739459
Feedback,1,1,20,f,2021.2.3,2021_Nov_16_1219,trial,1,29,right,congruent,incongruent,n,Feedback,FALSE,NA,NA,NA,NA,53,-2.294449e-4,9.011643e-4,0.007034604,-1.151344e-4,2.02083e-4,3.262174e-4,-1.705125e-4,-3.983228e-4,-2.502161e-5,0.001097519,-2.625763e-4,-1.150554e-4,-1.091358e-4,-9.592128e-5,1.901276e-4,8.177338e-5,9.387946e-4,2.584351e-4,4.248127e-4,6.323246e-4
Feedback,1,1,20,f,2021.2.3,2021_Nov_16_1219,trial,1,30,left,incongruent,congruent,g,Feedback,TRUE,g,TRUE,520.0680999550968,NA,54,4.41075e-4,3.156691e-4,0.001203084,0.001426769,4.03009e-4,0.004721158,4.275577e-4,5.388065e-4,5.008146e-4,-3.76911e-4,1.386626e-4,5.717054e-4,4.597486e-4,9.238017e-4,-1.219502e-4,7.749435e-4,-1.670643e-4,2.8811e-4,-2.675445e-5,-1.112731e-4
Feedback,1,1,20,f,2021.2.3,2021_Nov_16_1219,trial,1,31,right,congruent,incongruent,n,Feedback,TRUE,n,TRUE,591.7017000028864,NA,55,0.003229938,0.00276579,0.002651398,0.001141102,0.001742241,5.305209e-5,5.923752e-4,-2.305455e-4,0.004182284,-5.333917e-5,0.006016101,0.005483068,0.01019816,0.002386588,0.002616413,0.004700515,3.520427e-4,5.326963e-4,-2.73436e-4,4.765349e-4
Feedback,1,1,20,f,2021.2.3,2021_Nov_16_1219,trial,1,32,left,incongruent,incongruent,f,Feedback,TRUE,f,TRUE,543.4941999847069,NA,56,5.365023e-4,8.618925e-5,-3.089593e-5,0.002447652,0.004382859,5.912606e-4,3.880644e-4,4.574265e-4,0.001013294,2.897738e-4,0.001041602,-6.659376e-5,0.001037407,0.00101986,0.002127239,4.246575e-4,4.809119e-4,4.661724e-5,0.001561814,3.348243e-4
Feedback,1,1,20,f,2021.2.3,2021_Nov_16_1219,trial,1,33,right,incongruent,incongruent,n,Feedback,TRUE,n,TRUE,631.1744000413453,NA,57,-4.412862e-4,-0.001524387,-0.001136709,-0.001281982,0.00147404,-0.001227567,3.797468e-4,-0.001007241,-0.001258894,-8.04387e-4,8.144437e-4,0.001075675,3.672163e-4,0.001092919,5.679412e-4,0.001352774,0.003682229,0.002037744,5.019688e-4,0.002312662
Feedback,1,1,20,f,2021.2.3,2021_Nov_16_1219,trial,1,34,left,incongruent,congruent,f,Feedback,TRUE,f,TRUE,446.8495000619439,NA,58,-7.493503e-5,-3.676915e-4,6.501609e-4,4.178907e-4,6.630342e-5,1.444861e-4,0.007552231,9.960332e-4,9.685941e-5,1.334737e-4,-7.04746e-4,-3.215009e-4,-2.081823e-4,1.141722e-4,-2.107251e-4,1.469497e-4,-1.867418e-5,-9.854001e-4,-2.358181e-4,-0.0010371
Feedback,1,1,20,f,2021.2.3,2021_Nov_16_1219,trial,1,35,right,congruent,incongruent,j,Feedback,TRUE,j,TRUE,478.5369000164792,NA,59,-4.205406e-4,1.218636e-5,3.804239e-4,-6.014671e-4,-5.780651e-4,-4.68001e-4,-8.673527e-4,-5.092592e-4,6.539265e-4,-4.498926e-4,1.071577e-4,-6.923366e-4,-7.393486e-4,5.738111e-5,-5.095871e-4,-4.47188e-4,-8.396094e-4,-0.001240924,-7.959225e-4,-0.001167856
Feedback,1,1,20,f,2021.2.3,2021_Nov_16_1219,trial,1,36,left,incongruent,incongruent,f,Feedback,TRUE,f,TRUE,550.5159999593161,NA,60,2.533814e-4,-5.461439e-4,-2.425141e-4,-1.028324e-4,-2.14387e-4,0.003167837,0.002740253,1.17277e-4,0.001347913,-4.432014e-4,0.001183671,7.06967e-6,-0.001033747,-8.818855e-4,0.001058005,0.005881411,-2.656188e-4,-3.326039e-4,-0.001464149,-6.407788e-4
Feedback,1,1,20,f,2021.2.3,2021_Nov_16_1219,trial,1,37,right,incongruent,incongruent,j,Feedback,TRUE,j,TRUE,502.11729999864474,NA,61,-6.631571e-4,-8.675018e-4,6.628116e-4,-6.076223e-4,1.011186e-4,-0.001353682,-0.001649861,-0.00136222,-0.001074623,-0.001362906,0.001249465,4.960711e-4,-6.191817e-5,8.443433e-4,3.543801e-4,4.089565e-4,3.751905e-4,4.401277e-4,3.358815e-4,-3.995779e-4
Feedback,1,1,20,f,2021.2.3,2021_Nov_16_1219,trial,1,38,left,incongruent,congruent,g,Feedback,TRUE,g,TRUE,557.7991000027396,NA,62,-1.033051e-4,-2.663578e-4,-8.864638e-4,4.128879e-5,-2.028607e-4,-7.882923e-4,-4.735885e-4,-6.286004e-4,-6.826393e-4,-3.385823e-4,4.104467e-4,0.001158235,0.00120442,-3.92386e-4,-2.100354e-4,9.427679e-4,4.869114e-4,3.203191e-5,0.001087712,9.823738e-4
Feedback,1,1,20,f,2021.2.3,2021_Nov_16_1219,trial,1,39,right,congruent,congruent,j,Feedback,TRUE,j,TRUE,413.4482000372375,NA,63,6.606583e-4,0.001471561,-8.692662e-5,-7.487406e-4,-4.237669e-4,-8.876772e-4,-4.108238e-4,-0.001184963,-8.6894e-4,-2.993238e-4,0.001209582,0.005105587,0.002517574,8.634997e-4,-1.105142e-5,6.265591e-4,5.302907e-4,3.759235e-4,3.599091e-4,8.775829e-5
Feedback,1,1,20,f,2021.2.3,2021_Nov_16_1219,trial,1,40,left,congruent,incongruent,f,Feedback,TRUE,f,TRUE,437.3512999736704,NA,64,1.561478e-4,5.836987e-4,8.986772e-4,7.015932e-5,2.746587e-4,2.837877e-4,9.736866e-4,6.111495e-4,6.513426e-4,6.739937e-4,-0.001123879,1.221946e-4,-6.092153e-5,-7.81041e-4,-0.001270278,2.434747e-4,-4.021297e-4,-9.442787e-4,-8.110871e-4,-3.728424e-4
Feedback,1,1,20,f,2021.2.3,2021_Nov_16_1219,trial,1,41,right,incongruent,congruent,n,Feedback,TRUE,n,TRUE,509.120500064455,NA,65,-5.570119e-4,-2.689727e-4,-7.721423e-4,-2.432298e-4,-5.652943e-4,-1.089014e-4,3.588537e-4,-9.374031e-4,-3.047194e-5,-4.710859e-4,7.256941e-4,0.001442908,9.816712e-4,6.99768e-4,6.746731e-4,-1.158373e-4,5.609025e-4,6.809148e-4,1.131702e-4,-9.522948e-5
Feedback,1,1,20,f,2021.2.3,2021_Nov_16_1219,trial,1,42,left,congruent,congruent,f,Feedback,TRUE,f,TRUE,436.8071000208147,NA,66,-6.261738e-4,-5.845851e-4,-0.001024032,-2.362735e-4,-9.923296e-4,-0.001115252,-0.001157556,-1.728882e-4,-3.792166e-4,1.842885e-4,5.369702e-4,3.08183e-4,6.147334e-5,2.119252e-4,5.17256e-4,3.381042e-4,9.397324e-5,6.219189e-4,-1.168802e-4,0.001006473
Feedback,1,1,20,f,2021.2.3,2021_Nov_16_1219,trial,1,43,right,congruent,incongruent,j,Feedback,TRUE,j,TRUE,532.6346000656486,NA,67,6.71947e-4,7.417585e-4,3.803428e-4,9.061395e-4,-6.11993e-5,5.581396e-4,-7.336179e-5,-2.724817e-5,9.210961e-4,2.153701e-4,1.240701e-4,-5.288038e-5,2.277241e-4,2.674293e-6,-1.378342e-4,3.110255e-4,9.861441e-4,8.880774e-4,2.280262e-4,8.514466e-4
Feedback,1,1,20,f,2021.2.3,2021_Nov_16_1219,trial,1,44,left,incongruent,congruent,f,Feedback,TRUE,f,TRUE,484.5163999707438,NA,68,0.001376321,8.160046e-4,4.962818e-4,-2.376405e-4,-4.95282e-5,2.435821e-4,1.057531e-4,1.128649e-4,1.13562e-4,5.440395e-4,-1.217938e-4,2.504985e-4,5.862515e-4,-9.728223e-5,0.001516342,7.755077e-5,7.206805e-4,0.003817798,0.006776038,0.0032171
Feedback,1,1,20,f,2021.2.3,2021_Nov_16_1219,trial,1,45,right,congruent,congruent,j,Feedback,TRUE,j,TRUE,508.062700100709,NA,69,-2.586604e-4,8.616899e-5,-5.602349e-4,-2.481762e-4,8.1704e-5,3.03844e-5,3.521813e-4,-1.679213e-4,-2.353406e-4,-2.20735e-4,9.966023e-4,0.003040559,0.003759094,0.001180865,9.081812e-4,3.349192e-4,0.00110467,4.106594e-4,0.001363487,9.175065e-4
Feedback,1,1,20,f,2021.2.3,2021_Nov_16_1219,trial,1,46,left,congruent,congruent,g,Feedback,TRUE,g,TRUE,427.6701000635512,NA,70,4.270308e-4,6.905611e-4,7.564597e-4,4.583976e-4,8.683213e-4,7.440759e-4,1.848454e-4,5.591611e-4,3.85773e-4,6.518875e-4,3.632307e-4,-3.886496e-4,3.779312e-4,3.543299e-4,0.002709661,0.005489047,0.00189167,0.001891813,0.001171406,3.586638e-4
Feedback,1,1,20,f,2021.2.3,2021_Nov_16_1219,trial,1,47,right,congruent,incongruent,j,Feedback,TRUE,j,TRUE,459.46350001031533,NA,71,5.683932e-5,-5.546659e-4,0.00215581,0.002517778,2.094614e-5,9.158766e-5,0.005215113,2.496457e-4,6.014635e-4,2.948581e-4,-5.047189e-4,-1.334422e-5,0.002455179,0.005079664,0.001012496,-3.77693e-4,8.867319e-4,0.001714753,7.721336e-4,0.00168756
Feedback,1,1,20,f,2021.2.3,2021_Nov_16_1219,trial,1,48,left,incongruent,congruent,g,Feedback,TRUE,g,TRUE,443.17629997385666,NA,72,-0.002580803,-0.003047333,-0.001419873,-0.00181311,-0.001085182,-0.002001936,-5.270075e-4,-0.001153783,-0.001559352,-2.316185e-4,9.962054e-4,0.001388098,0.001949717,0.002335128,0.00591988,0.002527553,0.002072182,6.682213e-4,6.142244e-4,9.430771e-4
Feedback,1,1,20,f,2021.2.3,2021_Nov_16_1219,trial,1,49,right,congruent,congruent,j,Feedback,TRUE,j,TRUE,418.92840003129095,NA,73,-7.508032e-4,0.003330196,0.001501605,0.002059925,0.00256226,-0.001155357,0.00257741,-3.082831e-4,0.002075819,4.209199e-4,1.626273e-4,0.003806217,0.008635667,0.002740616,0.001364739,-8.445836e-4,6.107055e-5,-0.001233096,0.003088176,5.832999e-4
Feedback,1,1,20,f,2021.2.3,2021_Nov_16_1219,trial,1,50,left,congruent,congruent,g,Feedback,TRUE,g,TRUE,426.66310002096,NA,74,1.579011e-4,0.001763606,8.401398e-4,-1.932087e-4,5.065696e-6,2.497842e-4,2.593419e-4,-5.251567e-4,-5.04809e-4,0.002242691,-1.175897e-4,0.001766406,0.001729731,-0.001053932,0.001739071,0.001437015,2.180887e-4,-8.122132e-4,-9.25598e-4,-0.001247724
Feedback,1,1,20,f,2021.2.3,2021_Nov_16_1219,trial,1,51,right,congruent,incongruent,j,Feedback,TRUE,j,TRUE,482.27560002123937,NA,75,-3.77855e-4,-3.369516e-4,0.001070594,0.00252311,0.001143032,-1.142235e-4,0.001177005,0.001008013,0.00391104,3.081025e-4,4.405484e-4,0.001202921,0.001568356,0.002988031,0.001834131,0.002430493,0.003472732,0.00475469,-8.90356e-6,3.976715e-4
Feedback,1,1,20,f,2021.2.3,2021_Nov_16_1219,trial,1,52,left,incongruent,congruent,g,Feedback,TRUE,g,TRUE,674.1072000586428,NA,76,-8.359258e-4,-0.001858365,7.028459e-6,0.00179763,-6.103513e-4,-0.001096841,-0.001556488,-6.636423e-4,-0.001287848,-0.001419028,9.016402e-5,5.072081e-4,0.00278534,0.002127001,0.001551257,0.001529195,6.246542e-4,3.106622e-4,0.001075958,0.001007288
Feedback,1,1,20,f,2021.2.3,2021_Nov_16_1219,trial,1,53,right,congruent,incongruent,j,Feedback,TRUE,j,TRUE,449.8826000490226,NA,77,-4.526286e-4,-3.236469e-4,0.001678392,5.603477e-4,1.043077e-4,-0.001263469,-5.307018e-4,-4.47206e-4,1.640732e-4,-3.768585e-4,6.951391e-4,-5.67094e-6,8.389482e-4,2.68231e-4,2.663421e-4,4.749696e-4,-9.476347e-5,1.566617e-4,4.979596e-5,8.145114e-4
Feedback,1,1,20,f,2021.2.3,2021_Nov_16_1219,trial,1,54,left,incongruent,incongruent,g,Feedback,TRUE,g,TRUE,553.6024000030009,NA,78,7.660319e-4,2.578157e-4,-1.076233e-4,5.796466e-4,1.59835e-4,5.187152e-4,0.002029085,0.002165025,8.049503e-4,7.632126e-4,5.373396e-4,0.001045432,0.002790107,0.01559728,0.01029022,0.002132596,0.004279586,0.003714373,0.002307438,0.001857482
Feedback,1,1,20,f,2021.2.3,2021_Nov_16_1219,trial,1,55,right,incongruent,congruent,j,Feedback,TRUE,j,TRUE,657.3562999838032,NA,79,-0.001558639,-0.002465748,-0.002207917,0.00289692,-1.566126e-4,-0.00298317,-0.002809587,-0.002442359,-0.002698532,-0.002301349,5.878299e-4,-9.101317e-4,-1.158e-4,-1.154516e-4,-0.001213595,-0.001325869,-0.001849708,-0.001668156,-6.894376e-4,-0.001449085
Feedback,1,1,20,f,2021.2.3,2021_Nov_16_1219,trial,1,56,left,congruent,incongruent,f,Feedback,TRUE,f,TRUE,481.275200028904,NA,80,-3.708081e-4,8.362858e-5,1.302438e-4,-2.903508e-4,-4.486745e-4,-6.676827e-4,-4.405641e-4,9.839158e-4,6.075313e-4,-3.776627e-4,7.503153e-4,7.908513e-4,0.00040102650000000003,-1.576246e-4,5.15212e-4,-4.86452e-4,-1.049902e-4,6.595993e-4,6.279018e-4,6.866587e-4
Feedback,1,1,20,f,2021.2.3,2021_Nov_16_1219,trial,1,57,right,incongruent,congruent,n,Feedback,TRUE,n,TRUE,584.6960000344552,NA,81,0.003133093,2.013899e-4,2.493896e-4,6.178068e-5,4.014706e-4,3.271156e-4,5.742691e-4,6.246842e-4,1.521689e-4,0.004547291,0.006904137,0.001783458,-1.528845e-4,-9.109252e-4,-5.968874e-4,-7.238655e-4,-4.078995e-4,-3.396636e-4,1.915904e-4,8.214633e-4
Feedback,1,1,20,f,2021.2.3,2021_Nov_16_1219,trial,1,58,left,congruent,congruent,g,Feedback,TRUE,g,TRUE,440.54100004723296,NA,82,4.327181e-5,-2.00964e-4,-5.15267e-4,-8.566933e-4,9.977655e-5,0.0022833,1.571164e-4,1.630145e-4,-1.579216e-4,-4.747068e-5,7.867464e-5,2.431563e-4,-2.250134e-5,-1.228901e-4,6.194148e-4,9.461421e-4,7.937106e-4,0.001293794,0.004885187,0.002853268
Feedback,1,1,20,f,2021.2.3,2021_Nov_16_1219,trial,1,59,right,congruent,incongruent,n,Feedback,TRUE,n,TRUE,536.1408999888229,NA,83,2.026351e-4,-1.647528e-4,-9.432141e-4,0.003566688,2.806867e-4,-3.132687e-4,-5.882811e-4,-6.325683e-4,0.001904691,0.001138302,5.978872e-4,-6.124494e-5,8.246078e-4,0.00237011,-3.220519e-4,6.472345e-4,4.977181e-4,-1.535624e-4,0.002896422,0.007452986
Feedback,1,1,20,f,2021.2.3,2021_Nov_16_1219,trial,1,60,left,incongruent,incongruent,g,Feedback,TRUE,g,TRUE,488.03249996854015,NA,84,8.061621e-4,3.903413e-4,5.232608e-4,0.008592661,0.006697103,0.00137548,0.001112664,-9.884883e-5,-3.543216e-4,7.024347e-4,2.424373e-4,5.315458e-4,8.743956e-4,0.001170829,6.619219e-4,5.710906e-4,2.557931e-4,9.531599e-4,6.265145e-4,3.949624e-4
Feedback,1,1,20,f,2021.2.3,2021_Nov_16_1219,trial,1,61,right,incongruent,congruent,j,Feedback,TRUE,j,TRUE,455.902400019113,NA,85,4.874768e-4,3.860977e-4,-1.71219e-4,-3.001468e-4,-3.569641e-4,3.97834e-4,-1.446772e-4,-3.462817e-4,9.488268e-5,4.617039e-4,-5.266815e-4,-2.926693e-4,-1.790663e-4,-1.329365e-4,-2.933184e-4,5.135363e-4,2.446151e-4,-2.196981e-4,-2.362392e-4,-2.430805e-4
Feedback,1,1,20,f,2021.2.3,2021_Nov_16_1219,trial,1,62,left,congruent,incongruent,g,Feedback,TRUE,g,TRUE,535.5190999689512,NA,86,0.002487844,4.559925e-4,1.140439e-4,0.001580293,9.250036e-4,7.187552e-4,0.001688632,-1.280904e-4,0.004463069,0.006300275,0.004965205,0.002908433,0.001892016,0.003705214,0.003356902,0.004019707,0.001695666,0.001796182,0.002231841,0.005749095
Feedback,1,1,20,f,2021.2.3,2021_Nov_16_1219,trial,1,63,right,incongruent,incongruent,j,Feedback,TRUE,j,TRUE,495.0463999994099,NA,87,7.948114e-4,8.149957e-5,-4.320428e-4,-3.845786e-4,7.811787e-4,2.086814e-4,2.874294e-5,-3.601401e-5,-2.00514e-4,6.20496e-5,5.586294e-4,0.001721503,3.498007e-4,0.001218461,3.629827e-4,1.639081e-4,-1.279649e-4,3.034725e-4,6.366667e-4,5.591224e-4
Feedback,1,1,20,f,2021.2.3,2021_Nov_16_1219,trial,1,64,left,incongruent,congruent,f,Feedback,TRUE,f,TRUE,590.9733000444251,NA,88,-6.32857e-5,2.173358e-5,-1.355901e-4,-2.103071e-4,0.00273674,0.001839363,0.001026656,9.526848e-4,0.001749249,-1.90923e-4,-4.235054e-4,7.746594e-4,0.001071057,0.002618004,0.003471207,0.008059219,0.007005614,0.002176551,9.1305e-4,1.645185e-4
Feedback,1,1,20,f,2021.2.3,2021_Nov_16_1219,trial,1,65,right,congruent,congruent,j,Feedback,TRUE,j,TRUE,406.6274000797421,"[('j', -0.9362763999961317)]",89,4.123715e-4,-4.51901e-6,1.019868e-5,-2.72491e-4,5.807583e-4,3.312407e-4,2.606884e-4,-2.532563e-4,5.39738e-4,-3.935734e-5,-2.270446e-4,-3.06688e-4,-4.542392e-4,-3.896133e-4,-7.607943e-4,-0.001104218,-9.616115e-5,-6.602866e-4,-7.301572e-4,-0.001027853
Feedback,1,1,20,f,2021.2.3,2021_Nov_16_1219,trial,1,66,left,congruent,incongruent,f,Feedback,TRUE,f,TRUE,550.3846000065096,NA,90,4.684398e-4,-8.377223e-5,-2.57119e-4,2.200383e-4,0.002528692,0.001410086,6.186835e-4,6.292356e-4,6.525283e-4,6.255702e-4,-3.221182e-4,-7.487218e-4,9.711664e-4,-3.345233e-4,0.002819397,0.003459389,0.006238665,0.006095728,0.00654357,0.001499426
Feedback,1,1,20,f,2021.2.3,2021_Nov_16_1219,trial,1,67,right,incongruent,congruent,n,Feedback,TRUE,j,FALSE,405.9861999703571,NA,91,5.430386e-4,1.934348e-4,0.004098805,0.002156162,2.056193e-4,5.116961e-4,-3.338064e-4,-1.392136e-4,0.001155762,0.006246712,-2.980881e-4,0.001004489,0.002359141,0.0068572,0.001744414,3.148372e-4,6.045152e-4,-2.984039e-5,3.126037e-4,0.002398493
Feedback,1,1,20,f,2021.2.3,2021_Nov_16_1219,trial,1,68,left,congruent,congruent,f,Feedback,TRUE,f,TRUE,565.9100000048056,NA,92,8.656417e-4,0.001065133,3.798776e-4,3.651828e-4,3.834721e-4,5.345535e-5,5.031833e-4,3.330759e-5,3.95854e-4,6.156175e-4,0.008447753,0.02522976,0.001439562,0.001129257,-2.789677e-4,2.929654e-4,0.001138715,-5.795645e-4,-6.82017e-4,2.301093e-4
Feedback,1,1,20,f,2021.2.3,2021_Nov_16_1219,trial,1,69,right,congruent,congruent,n,Feedback,TRUE,n,TRUE,461.4928000373766,NA,93,-4.266616e-4,3.410573e-4,-4.745756e-4,7.008235e-4,-3.415602e-4,6.849079e-4,2.372677e-4,8.406797e-4,5.042371e-4,1.592641e-4,7.423876e-4,8.2095e-4,0.001225378,0.003081762,0.005132061,0.006530436,0.003552285,0.00348665,0.001984474,0.001882293
Feedback,1,1,20,f,2021.2.3,2021_Nov_16_1219,trial,1,70,left,congruent,congruent,g,Feedback,TRUE,f,FALSE,541.2954000057655,NA,94,-7.622535e-4,-9.526967e-4,-0.001112011,-4.237164e-4,-5.262694e-4,3.495989e-4,-1.599011e-4,-9.581203e-4,-8.507499e-4,-4.324685e-4,9.774e-4,6.680831e-5,0.001489912,0.001344312,0.003900632,0.01303145,0.0106298,0.006314246,0.003290107,0.002431984
Feedback,1,1,20,f,2021.2.3,2021_Nov_16_1219,trial,1,71,right,congruent,congruent,n,Feedback,TRUE,n,TRUE,397.5784999784082,NA,95,0.00208039,5.995627e-4,6.077997e-5,-4.515108e-4,-6.131828e-4,-4.882761e-4,2.29175e-4,-1.653226e-4,-6.569766e-4,0.001089272,0.002387611,0.01035828,0.005531967,0.002496773,0.001948449,0.00161922,0.001295618,0.001108471,0.001066573,-3.19652e-5
Feedback,1,1,20,f,2021.2.3,2021_Nov_16_1219,trial,1,72,left,congruent,incongruent,g,Feedback,TRUE,g,TRUE,612.5875000143424,NA,96,-0.003619584,-0.0031196,-0.002842686,-0.003418038,-0.00373659,-0.004002789,-0.003167287,6.850031e-4,-8.544666e-4,-0.002954931,9.830033e-4,0.005826548,0.006328833,0.001867995,2.832531e-4,2.351955e-4,-1.495191e-4,0.002905983,0.0021426,0.001096377
Feedback,1,1,20,f,2021.2.3,2021_Nov_16_1219,trial,1,73,right,incongruent,incongruent,j,Feedback,TRUE,j,TRUE,468.51819998119026,NA,97,5.267665e-4,-7.399661e-5,0.001134352,0.002150872,1.419976e-4,5.536166e-4,-8.623156e-4,-6.536786e-4,-3.412261e-4,-2.524427e-4,4.306048e-4,-1.044457e-4,2.947423e-4,4.384073e-4,1.85199e-4,7.463167e-4,2.468517e-4,-3.564511e-4,-1.704636e-4,6.078235e-4
Feedback,1,1,20,f,2021.2.3,2021_Nov_16_1219,trial,1,74,left,incongruent,congruent,f,Feedback,TRUE,f,TRUE,500.302099972032,NA,98,0.003611532,0.002571104,0.003834876,0.001810105,0.001625048,0.001556515,8.148423e-4,0.00384199,0.002173709,9.532552e-6,0.003537878,0.001506394,7.548705e-4,0.00244823,0.002323049,4.784639e-4,0.0017509,0.001146077,1.231352e-4,-8.671812e-5
Feedback,1,1,20,f,2021.2.3,2021_Nov_16_1219,trial,1,75,right,congruent,incongruent,n,Feedback,TRUE,n,TRUE,548.0893001076765,NA,99,4.497953e-4,-8.345227e-4,0.001216123,-6.192829e-6,0.001759836,0.001102438,-8.138362e-5,0.003042012,8.105489e-4,0.003758905,3.161867e-4,7.243463e-4,3.607225e-4,6.148966e-4,7.54502e-4,5.637299e-4,4.495329e-4,5.161739e-5,4.555554e-4,2.426107e-4
Feedback,1,1,20,f,2021.2.3,2021_Nov_16_1219,trial,1,76,left,incongruent,incongruent,f,Feedback,TRUE,f,TRUE,483.84529998293146,NA,100,-2.209214e-5,3.476555e-4,8.127829e-4,3.933678e-4,0.001077455,1.075212e-6,6.085415e-4,2.153683e-4,0.003898332,0.001037577,-2.209727e-4,1.846859e-4,1.09095e-4,-1.101164e-4,2.671616e-4,4.410051e-4,5.589755e-4,0.001264694,0.004121171,0.00501628
Feedback,1,1,20,f,2021.2.3,2021_Nov_16_1219,trial,1,77,right,incongruent,incongruent,j,Feedback,TRUE,j,TRUE,483.3881000522524,NA,101,-7.235513e-4,-6.891279e-4,-9.73227e-4,-6.250315e-4,2.595494e-4,-6.729893e-4,-6.034395e-4,-4.133433e-4,-6.924991e-4,-1.764784e-4,0.001298864,2.845528e-4,0.001129944,6.528929e-4,1.478358e-6,0.001158431,3.232632e-4,5.005263e-4,3.173919e-4,0.001659521
Feedback,1,1,20,f,2021.2.3,2021_Nov_16_1219,trial,1,78,left,incongruent,incongruent,g,Feedback,TRUE,g,TRUE,611.1955999513159,NA,102,1.801136e-4,6.356807e-4,-2.045834e-4,-8.924794e-5,-4.967004e-4,-1.276729e-4,-6.577108e-4,-6.969674e-4,-5.843868e-4,-3.259191e-4,2.204478e-4,-1.273369e-4,8.326042e-4,0.001215073,0.002022657,0.001936257,1.169823e-5,8.617004e-5,9.834403e-4,2.952365e-4
Feedback,1,1,20,f,2021.2.3,2021_Nov_16_1219,trial,1,79,right,incongruent,incongruent,n,Feedback,TRUE,n,TRUE,474.8932000948114,NA,103,4.638382e-4,9.972136e-6,3.688061e-5,3.209221e-5,-3.87853e-4,6.583822e-4,8.850056e-5,6.047669e-4,-3.979052e-5,-4.951142e-4,0.001271626,7.347249e-4,0.002100301,0.001787448,0.001822165,0.001712895,9.914907e-4,7.04388e-4,3.765699e-4,2.634905e-4
Feedback,1,1,20,f,2021.2.3,2021_Nov_16_1219,trial,1,80,left,incongruent,congruent,g,Feedback,TRUE,g,TRUE,650.6308000534773,NA,104,6.554548e-4,-1.386344e-4,-9.230059e-5,1.420353e-4,-5.874521e-4,-6.38027e-4,5.791686e-5,-5.979697e-4,-7.503713e-5,-4.069507e-4,3.850746e-4,-3.532498e-4,0.002756992,0.00378958,2.109595e-4,6.557244e-4,-1.517475e-4,-4.108215e-4,-6.740873e-4,5.844682e-4
Feedback,1,1,20,f,2021.2.3,2021_Nov_16_1219,trial,1,81,right,congruent,congruent,n,Feedback,TRUE,n,TRUE,522.5839000195265,NA,105,4.665543e-4,-1.636937e-4,7.858408e-4,4.577985e-4,6.282519e-4,2.042158e-4,6.847359e-4,0.001447985,2.601076e-4,9.371781e-4,5.816928e-4,5.193206e-4,6.355562e-4,6.600475e-4,0.00134795,0.00134075,4.228578e-4,1.898484e-4,4.482806e-4,3.532362e-4
Feedback,1,1,20,f,2021.2.3,2021_Nov_16_1219,trial,1,82,left,congruent,incongruent,f,Feedback,TRUE,f,TRUE,561.9827999616973,NA,106,2.090649e-4,1.526335e-4,1.150118e-4,1.188593e-4,-8.228724e-5,-1.083189e-4,1.434761e-4,-1.678817e-4,-2.968792e-4,1.853912e-4,-9.898975e-5,1.709181e-4,3.674766e-6,2.953599e-4,4.334588e-4,0.001451728,0.00191655,0.001064253,6.597778e-4,0.00132581
Feedback,1,1,20,f,2021.2.3,2021_Nov_16_1219,trial,1,83,right,incongruent,congruent,j,Feedback,TRUE,j,TRUE,505.9322000015525,NA,107,-4.510314e-4,-0.001176654,-7.482797e-4,0.002948432,0.001252973,8.404255e-6,0.002005166,-8.123275e-4,0.001858757,7.998385e-5,5.45709e-4,0.001144162,5.906034e-4,0.002689443,0.006247281,0.002641376,4.598182e-4,4.198521e-4,8.874703e-4,9.038264e-4
Feedback,1,1,20,f,2021.2.3,2021_Nov_16_1219,trial,1,84,left,congruent,congruent,f,Feedback,TRUE,f,TRUE,433.57110006036237,NA,108,-0.001677502,-0.004508152,-0.005095345,-0.004554106,-0.003838285,-0.002523287,-0.003163093,-0.004955531,-0.004343543,-0.005191281,2.055878e-4,-0.001932496,-0.00229941,-0.002320478,-1.052315e-4,5.256578e-4,-4.701135e-4,3.547519e-4,5.21966e-4,-0.001214308
Feedback,1,1,20,f,2021.2.3,2021_Nov_16_1219,trial,1,85,right,congruent,congruent,n,Feedback,TRUE,n,TRUE,553.2566999900155,NA,109,9.014334e-4,4.283669e-4,0.001104444,2.111893e-4,3.935224e-4,1.902983e-5,2.762433e-4,0.002088557,3.338663e-5,9.844042e-4,7.049863e-4,2.662436e-4,2.119331e-4,1.765384e-4,2.596436e-4,1.436032e-4,2.842296e-4,5.186919e-4,6.318637e-4,6.262382e-4
Feedback,1,1,20,f,2021.2.3,2021_Nov_16_1219,trial,1,86,left,congruent,incongruent,f,Feedback,TRUE,f,TRUE,433.0670000053942,NA,110,0.002221337,0.001484077,7.237215e-4,-4.884882e-4,-1.82745e-4,-6.992323e-5,3.857065e-4,0.001078192,1.487534e-4,0.002114866,0.001318421,0.003352364,0.002655709,0.003233294,4.78165e-4,0.002280039,0.001936682,0.001254432,1.249225e-4,1.641314e-4
Feedback,1,1,20,f,2021.2.3,2021_Nov_16_1219,trial,1,87,right,incongruent,incongruent,n,Feedback,TRUE,n,TRUE,512.6813999959268,NA,111,-0.001517395,-1.315144e-4,-0.002577079,-0.00205286,-0.001985532,-0.002493794,-0.00256701,-0.001947466,-0.00234237,0.001771856,0.001884612,0.001705178,0.004497581,0.009714021,9.872438e-4,-7.023546e-5,-8.995249e-5,-8.965869e-4,-7.946525e-4,-5.55734e-4
Feedback,1,1,20,f,2021.2.3,2021_Nov_16_1219,trial,1,88,left,incongruent,incongruent,g,Feedback,TRUE,g,TRUE,552.3470000480299,NA,112,-0.001020644,-2.891647e-4,0.001275443,2.733064e-4,-0.001023605,-1.458107e-4,0.003481573,-2.404416e-4,-8.027407e-4,-8.795937e-4,-1.428699e-4,5.057785e-4,7.314534e-4,6.268758e-4,1.010275e-4,-1.465279e-4,2.985465e-4,1.623568e-4,-6.197277e-5,-1.998229e-4
Feedback,1,1,20,f,2021.2.3,2021_Nov_16_1219,trial,1,89,right,incongruent,incongruent,j,Feedback,TRUE,j,TRUE,520.2277000644244,NA,113,-1.667165e-4,3.166769e-4,-0.001397802,-0.001598225,-8.908403e-5,-4.200276e-4,-3.217235e-4,-5.209723e-4,-7.167747e-4,-0.001120003,-4.886995e-4,-1.367799e-5,-9.647399e-4,-4.623439e-4,-8.0141e-4,-8.846208e-4,-3.493541e-4,-4.397813e-4,-4.980509e-4,-3.948174e-4
Feedback,1,1,20,f,2021.2.3,2021_Nov_16_1219,trial,1,90,left,incongruent,incongruent,g,Feedback,TRUE,g,TRUE,495.97809999249876,NA,114,0.002711839,2.382461e-4,-8.346963e-4,-5.637472e-4,3.070503e-4,2.768873e-4,-2.392801e-6,-2.936812e-4,-4.219424e-4,-2.451062e-4,0.005509295,0.002170683,3.328518e-4,3.897159e-4,6.597066e-4,7.920266e-4,4.427663e-4,5.823684e-4,6.772229e-6,6.412577e-4
Feedback,1,1,20,f,2021.2.3,2021_Nov_16_1219,trial,1,91,right,incongruent,congruent,n,Feedback,TRUE,n,TRUE,607.74050001055,NA,115,7.85514e-4,0.00371452,0.001927648,1.111533e-4,-7.363e-4,6.138305e-4,-4.686529e-4,-4.467529e-4,2.607037e-4,-3.536241e-4,1.487735e-4,0.007095047,0.002310912,2.210324e-4,4.230138e-4,-4.99686e-5,-7.186389e-4,-7.698699e-4,-5.962721e-4,1.757679e-4
Feedback,1,1,20,f,2021.2.3,2021_Nov_16_1219,trial,1,92,left,congruent,incongruent,f,Feedback,TRUE,f,TRUE,487.60240006959066,NA,116,-6.761379e-4,-7.830579e-4,-0.001123468,-4.930701e-4,-3.307667e-4,4.389556e-6,-7.872405e-4,-8.679753e-4,0.002423533,8.891774e-4,2.746709e-4,7.924631e-4,4.889327e-4,5.466724e-4,5.279807e-4,9.69096e-4,2.109135e-4,5.649078e-4,2.731957e-4,5.708046e-4
Feedback,1,1,20,f,2021.2.3,2021_Nov_16_1219,trial,1,93,right,incongruent,congruent,j,Feedback,TRUE,j,TRUE,423.0502000427805,NA,117,1.868214e-4,-4.051327e-4,0.004800749,0.001124965,0.002028576,0.001105537,6.547431e-5,0.001313557,0.001308443,0.001159465,7.446154e-4,5.208314e-4,0.004211331,0.002036117,7.801276e-4,9.329203e-4,1.626898e-4,-1.504897e-4,0.00131572,6.995066e-4
Feedback,1,1,20,f,2021.2.3,2021_Nov_16_1219,trial,1,94,left,congruent,congruent,f,Feedback,TRUE,f,TRUE,382.9753000754863,NA,118,3.088557e-4,3.522851e-4,3.460865e-4,0.003757968,1.327589e-4,2.501465e-4,0.001516249,4.350259e-4,0.002716963,0.001335752,2.643233e-4,5.930456e-4,6.456119e-4,-6.205577e-5,0.001454519,0.001106738,0.01053967,0.01534193,0.00507311,0.002682731
Feedback,1,1,20,f,2021.2.3,2021_Nov_16_1219,trial,1,95,right,congruent,incongruent,n,Feedback,TRUE,j,FALSE,350.8677000063474,NA,119,-7.891237e-4,-4.416564e-6,0.003669084,-3.987809e-4,-2.654092e-4,5.33913e-4,0.005430231,0.118209,0.01927793,0.001398276,-9.454963e-4,-1.878648e-4,0.0034848,0.005625406,-2.4136160000000002e-005,0.001071347,0.00255322,0.001977073,-5.228186e-4,-0.001125325
Feedback,1,1,20,f,2021.2.3,2021_Nov_16_1219,trial,1,96,left,incongruent,incongruent,f,Feedback,TRUE,f,TRUE,486.3916000467723,NA,120,-4.702618e-4,-4.499615e-5,-4.697837e-4,6.670647e-4,0.00389328,1.556138e-4,-3.066135e-4,2.627117e-4,0.001093004,0.001959271,9.518614e-4,4.742865e-4,1.500405e-4,2.379224e-4,3.95259e-4,1.475803e-4,-1.146677e-4,-1.36559e-4,6.038647e-4,0.002197569
Feedback,1,1,20,f,2021.2.3,2021_Nov_16_1219,trial,1,97,right,incongruent,congruent,j,Feedback,TRUE,j,TRUE,430.13200006680563,NA,121,-8.891965e-5,-1.379712e-4,0.00467198,3.722415e-4,-4.731901e-4,-3.07647e-4,-2.186978e-5,1.743366e-5,-5.667077e-4,-2.038586e-4,-1.288112e-4,9.764037e-4,0.001115153,0.003197879,0.002483382,9.926958e-4,3.71661e-4,-9.509455e-5,-9.701448e-5,7.686368e-4
Feedback,1,1,20,f,2021.2.3,2021_Nov_16_1219,trial,2,1,right,congruent,congruent,j,Feedback,TRUE,j,TRUE,381.35480001801625,NA,122,7.699919e-5,-0.001161452,2.79072e-4,0.002435709,5.694882e-4,-7.332659e-4,-8.125487e-4,-3.029555e-4,-8.616215e-4,-7.974342e-4,-7.606065e-5,-7.350983e-4,0.0012143500000000001,0.006849152,0.002568335,1.799734e-4,3.899042e-4,-8.63521e-4,-0.001111632,-6.453234e-4
Feedback,1,1,20,f,2021.2.3,2021_Nov_16_1219,trial,2,2,left,congruent,incongruent,f,Feedback,TRUE,f,TRUE,533.0517999827862,NA,123,-6.454166e-4,7.494525e-4,-3.545871e-5,0.002128166,4.496803e-4,3.858448e-4,-9.257206e-4,-8.880583e-4,-3.750892e-4,-8.864654e-5,7.310302e-4,1.063183e-4,0.001001751,0.00486036,0.004038164,0.001724034,3.97526e-4,8.285807e-4,4.071536e-4,0.001882458
Feedback,1,1,20,f,2021.2.3,2021_Nov_16_1219,trial,2,3,right,incongruent,congruent,j,Feedback,TRUE,j,TRUE,396.75639994675294,NA,124,-4.566251e-4,0.001027422,-5.844773e-4,1.183394e-4,-1.295786e-4,-4.716921e-4,0.002606451,-4.961437e-4,-2.463993e-4,-8.015237e-4,6.914884e-5,7.9647e-4,5.242449e-4,8.413175e-4,0.001485717,0.001367603,0.002331963,0.001079734,0.002923044,0.003806411
Feedback,1,1,20,f,2021.2.3,2021_Nov_16_1219,trial,2,4,left,congruent,congruent,f,Feedback,FALSE,NA,NA,NA,NA,125,-2.853503e-4,3.811945e-4,6.029529e-4,-6.346046e-4,-5.753911e-4,0.001344131,0.001044011,1.348755e-4,-5.111315e-4,-3.156851e-4,4.081917e-5,-3.959448e-5,-4.027865e-5,-2.24296e-4,4.585925e-5,6.862942e-4,0.0025471,0.004526837,1.376061e-4,2.828441e-4
Feedback,1,1,20,f,2021.2.3,2021_Nov_16_1219,trial,2,5,right,congruent,incongruent,n,Feedback,TRUE,n,TRUE,484.45749998791143,NA,126,0.002610802,8.068e-4,4.507437e-4,7.552755e-4,6.517872e-4,9.16764e-4,0.004442894,0.001589533,7.375783e-4,0.001002443,0.005258011,0.004517665,0.00356987,0.002935935,0.001294716,0.003876806,0.006248068,0.003181261,0.00208452,0.001044014
Feedback,1,1,20,f,2021.2.3,2021_Nov_16_1219,trial,2,6,left,incongruent,incongruent,g,Feedback,TRUE,f,FALSE,452.0386999938637,NA,127,0.0018289790000000001,0.001423919,9.240687e-4,4.426017e-5,1.681338e-4,-1.461117e-4,-4.248616e-4,9.611137e-4,6.364293e-4,0.001026706,0.002598183,-1.97259e-4,-1.715531e-4,0.001030523,0.001498287,-5.671625e-4,-4.341333e-4,7.881895e-4,-7.633915e-4,-7.468533e-4
Feedback,1,1,20,f,2021.2.3,2021_Nov_16_1219,trial,2,7,right,incongruent,congruent,n,Feedback,TRUE,n,TRUE,531.7781999474389,NA,128,-3.803918e-4,-1.191305e-4,3.829447e-4,5.099294e-5,-3.212714e-4,2.325913e-4,5.554848e-4,-1.032815e-4,-1.725901e-4,2.84516e-4,1.991711e-4,-3.357523e-5,-2.945163e-4,-3.359487e-4,5.791542e-4,-6.779924e-5,9.529432e-5,-6.705662e-5,2.141491e-4,2.810499e-5
Feedback,1,1,20,f,2021.2.3,2021_Nov_16_1219,trial,2,8,left,congruent,congruent,g,Feedback,TRUE,g,TRUE,435.49410003470257,NA,129,0.00254006,0.001071728,-3.897578e-4,-7.324284e-4,1.022189e-4,0.003524536,0.001818735,-9.617815e-5,-8.5014e-4,1.983962e-4,0.008749934,0.003082067,2.868541e-4,6.705825e-4,-6.020395e-5,3.379917e-4,7.501945e-4,1.986467e-4,9.493434e-4,1.966907e-5
Feedback,1,1,20,f,2021.2.3,2021_Nov_16_1219,trial,2,9,right,congruent,congruent,j,Feedback,TRUE,j,TRUE,355.2868000115268,NA,130,-1.189881e-4,0.00357433,0.002066715,2.742133e-4,-6.446543e-4,-0.001277244,-0.001264972,-6.876215e-4,-7.001616e-4,-6.882895e-4,-2.953212e-5,0.005972884,0.005180839,6.706803e-4,-4.018707e-4,-4.842086e-4,-4.647494e-4,-4.063519e-4,-7.404525e-4,-5.547964e-4
Feedback,1,1,20,f,2021.2.3,2021_Nov_16_1219,trial,2,10,left,congruent,incongruent,f,Feedback,TRUE,f,TRUE,602.9917999985628,NA,131,6.639455e-4,-4.755333e-6,-4.934745e-4,-1.785087e-4,2.644793e-5,1.625766e-4,5.486298e-4,3.18296e-4,-1.981652e-4,-1.078944e-4,0.004812185,0.003696192,3.558875e-4,2.676557e-4,9.890215e-5,8.97464e-4,0.001156421,1.7902e-4,7.555221e-5,4.282038e-4
Feedback,1,1,20,f,2021.2.3,2021_Nov_16_1219,trial,2,11,right,incongruent,incongruent,n,Feedback,TRUE,n,TRUE,458.70999997714534,NA,132,-5.642353e-4,-4.619353e-4,5.222904e-5,0.001528432,0.001582921,0.002646249,-2.443632e-4,-6.927308e-4,0.002193621,0.002316672,0.007321608,0.001771999,6.758432e-4,0.005502522,0.008188807,0.003563936,0.002187346,3.479958e-4,0.003968706,0.006528168
Feedback,1,1,20,f,2021.2.3,2021_Nov_16_1219,trial,2,12,left,incongruent,congruent,f,Feedback,TRUE,f,TRUE,530.3365000290796,NA,133,0.001865734,0.001652107,-1.69141e-4,-8.067358e-4,-5.584175e-4,-3.895981e-4,3.338216e-4,1.59106e-4,-6.499985e-4,-5.855656e-4,0.003321243,0.003622541,2.802324e-4,-3.276429e-4,-6.378872e-4,-5.502203e-4,-8.673434e-4,-7.306882e-4,-1.225069e-4,-9.034588e-4
Feedback,1,1,20,f,2021.2.3,2021_Nov_16_1219,trial,2,13,right,congruent,incongruent,j,Feedback,TRUE,n,FALSE,402.1611000061969,NA,134,3.218779e-4,1.273402e-4,8.278333e-4,0.001548471,0.001185921,6.354384e-4,6.357648e-4,-1.80625e-4,6.164778e-4,-4.591182e-4,-4.414725e-5,7.193799e-4,8.729986e-4,0.005419418,0.002082473,7.52504e-4,-4.203405e-4,7.946568e-5,1.40866e-4,-2.963804e-4
Feedback,1,1,20,f,2021.2.3,2021_Nov_16_1219,trial,2,14,left,incongruent,incongruent,f,Feedback,TRUE,f,TRUE,465.931799961254,NA,135,0.002352705,0.001728583,-4.904135e-5,-1.917467e-4,-9.862008e-5,-8.912687e-5,-4.795578e-4,-2.361988e-4,2.778412e-4,-6.050738e-4,0.001813545,0.003428121,0.001675462,0.001534033,0.001631779,0.001245292,8.091337e-4,9.621789e-4,7.37585e-4,5.110271e-4
Feedback,1,1,20,f,2021.2.3,2021_Nov_16_1219,trial,2,15,right,incongruent,incongruent,n,Feedback,TRUE,n,TRUE,497.75510001927614,NA,136,-8.916669e-5,5.433569e-5,0.0031311,3.341767e-4,0.001906907,7.221715e-4,-1.671995e-4,0.003573037,4.47192e-4,9.788265e-4,-7.975195e-5,4.155473e-4,2.793489e-4,1.996302e-4,6.428042e-4,9.813552e-4,7.067429e-4,-1.620752e-4,-4.397732e-4,-1.693409e-4
Feedback,1,1,20,f,2021.2.3,2021_Nov_16_1219,trial,2,16,left,incongruent,incongruent,g,Feedback,TRUE,g,TRUE,505.4085999727249,NA,137,2.038898e-5,3.34776e-4,6.41353e-5,9.562601e-4,9.63388e-4,-1.057645e-4,-2.506264e-4,0.002452428,-7.659546e-4,-7.217473e-4,2.256879e-4,0.00114614,0.001329981,2.964771e-4,9.916915e-4,-4.295458e-5,7.984135e-4,6.910666e-4,3.413049e-4,3.468166e-4
Feedback,1,1,20,f,2021.2.3,2021_Nov_16_1219,trial,2,17,right,incongruent,incongruent,j,Feedback,TRUE,j,TRUE,529.1314999922174,NA,138,-6.533235e-4,-4.187028e-4,-0.001020146,-8.014326e-4,-4.325975e-4,-8.318133e-4,-0.001005345,-6.170738e-4,-4.352015e-4,0.002627292,5.634247e-4,3.355418e-4,5.556002e-4,3.113924e-4,2.109346e-4,-4.529575e-5,-7.877452e-5,3.704695e-4,3.095375e-4,2.24061e-4
Feedback,1,1,20,f,2021.2.3,2021_Nov_16_1219,trial,2,18,left,incongruent,congruent,f,Feedback,TRUE,f,TRUE,608.8509000255729,NA,139,-0.003090269,-0.004033564,-0.002785074,-0.002072517,-0.00349333,-0.003251696,-0.003097744,-0.002774172,-0.002665233,-0.003634854,-2.161901e-4,-1.224185e-4,5.126128e-5,-6.228966e-4,-6.254958e-4,-0.001038239,-8.069319e-4,-5.844795e-4,-9.42853e-4,-8.554049e-4
Feedback,1,1,20,f,2021.2.3,2021_Nov_16_1219,trial,2,19,right,congruent,congruent,j,Feedback,TRUE,j,TRUE,424.5542999706231,NA,140,2.491511e-4,-2.054095e-4,4.310261e-4,3.895466e-4,2.96003e-4,-4.099724e-4,2.824538e-4,-3.375555e-5,-1.353514e-5,4.18497e-4,1.125547e-4,-7.360888e-5,3.365909e-4,4.60142e-5,2.61909e-4,1.979326e-4,1.200948e-4,9.101804e-4,-7.275626e-5,3.31968e-4
Feedback,1,1,20,f,2021.2.3,2021_Nov_16_1219,trial,2,20,left,congruent,incongruent,g,Feedback,TRUE,g,TRUE,680.2259999676608,NA,141,4.542358e-4,-5.172361e-4,-6.854645e-4,0.002749618,2.095867e-4,1.975324e-4,0.001121101,9.968451e-4,-7.312978e-5,3.5549e-4,0.001628462,0.001309018,3.897845e-4,4.307557e-4,3.130708e-4,0.001314913,0.003957145,0.001633015,0.00155465,4.285352e-4
Feedback,1,1,20,f,2021.2.3,2021_Nov_16_1219,trial,2,21,right,incongruent,incongruent,j,Feedback,TRUE,j,TRUE,504.1623000288382,NA,142,-1.189334e-4,-5.403487e-5,2.590467e-4,-6.365238e-4,-3.113735e-4,-1.486717e-4,0.001354654,0.001179744,-0.001105447,-9.435901e-4,4.556077e-4,8.405575e-4,0.001927356,6.97021e-4,8.748741e-4,0.001687064,0.002547832,0.004063544,0.002267064,0.001643121
Feedback,1,1,20,f,2021.2.3,2021_Nov_16_1219,trial,2,22,left,incongruent,incongruent,g,Feedback,TRUE,f,FALSE,430.82770000910386,NA,143,0.0010082,2.677167e-4,-2.981836e-4,2.333465e-4,8.438948e-4,3.114027e-4,3.75705e-4,5.564446e-4,2.51908e-4,7.366698e-4,5.362714e-4,9.813244e-4,0.001044319,0.001295022,0.001241238,9.834815e-4,6.630745e-4,0.001379977,4.633524e-4,-8.625479e-5
Feedback,1,1,20,f,2021.2.3,2021_Nov_16_1219,trial,2,23,right,incongruent,congruent,n,Feedback,TRUE,n,TRUE,367.64169996604346,NA,144,-2.384952e-4,0.001061989,-2.033392e-4,6.008446e-4,0.002657311,0.003762058,0.00224963,1.216563e-5,7.599893e-4,1.398707e-4,-4.193832e-4,-3.223693e-4,6.502217e-4,5.873275e-4,0.001102286,0.00688416,0.002351714,7.747101e-4,8.641023e-4,2.72029e-4
Feedback,1,1,20,f,2021.2.3,2021_Nov_16_1219,trial,2,24,left,congruent,incongruent,f,Feedback,TRUE,f,TRUE,591.2688999669624,NA,145,-8.895781e-4,8.739508e-5,0.001205954,4.458253e-4,-4.11832e-4,-4.733584e-4,-9.108568e-6,-1.745969e-4,2.505956e-6,6.553805e-4,-4.970544e-5,2.89326e-4,0.001610193,0.005016221,0.005167361,0.004567918,0.01716412,0.01299614,0.005476445,0.004950175
Feedback,1,1,20,f,2021.2.3,2021_Nov_16_1219,trial,2,25,right,incongruent,incongruent,j,Feedback,TRUE,j,TRUE,559.0386000694707,NA,146,8.668685e-4,-8.703641e-4,-4.380771e-4,-1.501699e-4,-2.450426e-5,0.001294728,9.791644e-4,-1.215341e-4,1.391168e-4,0.00317165,5.282329e-4,7.377332e-5,-2.927195e-4,-6.893972e-4,-2.540487e-4,-3.972545e-5,0.001073303,3.194041e-5,-9.959133e-5,-1.397298e-5
Feedback,1,1,20,f,2021.2.3,2021_Nov_16_1219,trial,2,26,left,incongruent,incongruent,f,Feedback,TRUE,f,TRUE,510.92919998336606,NA,147,5.746221e-4,-2.03066e-4,-2.876909e-4,0.001344559,-3.953695e-4,-8.104213e-4,0.002235485,2.567195e-4,-1.315656e-4,-5.786892e-4,6.506569e-5,6.391082e-4,-2.959022e-4,4.67847e-4,-5.540426e-5,-8.084672e-5,-2.075988e-4,1.630285e-4,1.835404e-4,3.542681e-4
Feedback,1,1,20,f,2021.2.3,2021_Nov_16_1219,trial,2,27,right,incongruent,congruent,j,Feedback,TRUE,j,TRUE,422.5518999737685,NA,148,-0.001291364,-7.348268e-4,-6.580555e-4,-9.521175e-4,-7.433144e-4,-6.407448e-4,8.516067e-4,-1.054441e-4,-5.53421e-4,-9.772837e-4,6.00633e-4,8.775563e-4,3.967254e-5,3.329401e-4,5.331057e-4,0.001334989,0.002582897,0.001234031,3.410099e-4,2.333982e-4
Feedback,1,1,20,f,2021.2.3,2021_Nov_16_1219,trial,2,28,left,congruent,congruent,f,Feedback,TRUE,f,TRUE,590.1979000191204,NA,149,-7.199494e-4,-0.001736311,-0.001962305,-0.002087194,-0.001509952,-0.001497462,-0.002270658,-0.002011868,-0.0022931509999999998,0.001849999,-1.712053e-4,-7.425632e-4,-1.639114e-4,-0.001004952,-5.06339e-4,-0.001242123,-0.001007234,-8.299319e-4,-8.835867e-4,-6.803512e-4
Feedback,1,1,20,f,2021.2.3,2021_Nov_16_1219,trial,2,29,right,congruent,incongruent,n,Feedback,TRUE,n,TRUE,453.98980000754796,NA,150,0.001071243,-2.471434e-4,-3.093651e-4,-7.758347e-4,-2.753248e-4,7.382757e-5,-3.183121e-5,6.778424e-4,-1.751473e-4,3.900039e-4,-3.84281e-4,-3.231259e-4,-4.461053e-4,-6.655622e-4,-1.965743e-4,-4.707768e-4,-3.832208e-4,-1.544444e-4,-1.976824e-4,4.939003e-4
Feedback,1,1,20,f,2021.2.3,2021_Nov_16_1219,trial,2,30,left,incongruent,incongruent,f,Feedback,TRUE,f,TRUE,453.674900054466,NA,151,-1.561525e-5,-0.0012121,4.768022e-5,2.615061e-4,0.001267998,-3.303261e-5,3.021094e-4,-1.928627e-4,0.002205689,0.001356065,-3.448844e-4,-3.136066e-5,1.837701e-4,0.001253064,0.001657657,6.808764e-4,9.740501e-4,-1.94439e-4,-1.973617e-4,6.906122e-4
Feedback,1,1,20,f,2021.2.3,2021_Nov_16_1219,trial,2,31,right,incongruent,incongruent,j,Feedback,TRUE,j,TRUE,365.2984999935138,NA,152,2.696794e-4,4.535494e-4,0.002154094,0.002864977,1.011058e-4,2.051296e-4,0.001093323,3.977483e-4,1.533604e-4,0.006119932,2.655961e-4,5.063906e-4,0.002003349,0.00312737,0.00161697,-6.452872e-5,0.001247477,0.001524888,-3.658378e-4,0.002399009
Feedback,1,1,20,f,2021.2.3,2021_Nov_16_1219,trial,2,32,left,incongruent,incongruent,f,Feedback,FALSE,NA,NA,NA,NA,153,3.860395e-4,4.425466e-4,1.61265e-4,3.527452e-4,9.017526e-4,-2.544739e-4,-1.677705e-4,7.510022e-5,3.622016e-4,3.142459e-4,1.077026e-4,5.593896e-4,4.596836e-4,6.513176e-4,-2.169143e-4,-2.364328e-4,-6.269256e-4,-4.144793e-4,-5.771205e-4,-4.314099e-4
Feedback,1,1,20,f,2021.2.3,2021_Nov_16_1219,trial,2,33,right,incongruent,incongruent,j,Feedback,TRUE,j,TRUE,492.85000003874325,NA,154,-3.743654e-4,-3.207382e-4,0.00062818940000000005,0.002281397,-6.02901e-5,-1.706369e-5,-1.025151e-4,0.001718242,0.003953012,0.001790626,9.154072e-4,7.623194e-4,9.013992e-4,0.00403373,0.004596994,0.00227216,9.831254e-4,0.002758231,0.01441948,0.002853757
Feedback,1,1,20,f,2021.2.3,2021_Nov_16_1219,trial,2,34,left,incongruent,congruent,f,Feedback,FALSE,NA,NA,NA,NA,155,1.591851e-4,2.365285e-4,3.177144e-4,-9.994395e-5,2.743737e-4,3.52026e-5,0.001958047,0.002519249,3.694447e-4,-1.547304e-4,-4.809989e-4,4.74439e-6,-5.014537e-4,-7.94597e-4,8.1426e-5,-4.834176e-4,0.00223599,0.003416779,0.001613019,8.02848e-4
Feedback,1,1,20,f,2021.2.3,2021_Nov_16_1219,trial,2,35,right,congruent,incongruent,n,Feedback,FALSE,NA,NA,NA,NA,156,6.537605e-5,-6.184215e-5,3.824707e-4,2.65803e-4,5.048111e-4,5.206233e-4,0.002327522,0.001664446,4.711885e-4,8.864084e-4,-1.580836e-4,5.410309e-5,2.750719e-5,-4.411978e-4,-3.634271e-4,2.618006e-4,0.001637722,0.004698295,0.001734085,-2.265038e-4
Feedback,1,1,20,f,2021.2.3,2021_Nov_16_1219,trial,2,36,left,incongruent,congruent,g,Feedback,TRUE,f,FALSE,676.0209999629299,"[('g', -0.38659529999131337)]",157,1.029002e-4,2.968695e-4,6.541444e-4,-2.038381e-4,-2.353687e-4,1.150011e-4,9.787492e-4,-9.539535e-4,3.394217e-4,0.002427794,4.306168e-5,-4.690782e-4,-8.38564e-5,2.253313e-4,2.031511e-4,2.367472e-4,-3.3707e-4,3.785212e-4,5.294265e-4,-2.939169e-4
Feedback,1,1,20,f,2021.2.3,2021_Nov_16_1219,trial,2,37,right,congruent,congruent,j,Feedback,TRUE,j,TRUE,403.9061000221409,NA,158,-8.216267e-4,-4.40022e-4,0.003032455,-8.274268e-4,-4.760216e-4,-1.88956e-5,-6.229542e-4,6.572118e-4,-7.223452e-4,-7.704734e-4,-0.001893486,9.57395e-5,0.008942558,0.003356662,0.006535712,8.980189e-4,-2.020947e-4,-9.074996e-4,-8.189396e-4,-0.001079664
Feedback,1,1,20,f,2021.2.3,2021_Nov_16_1219,trial,2,38,left,congruent,incongruent,f,Feedback,TRUE,f,TRUE,515.4190000030212,NA,159,-0.001027807,-5.722495e-4,6.005284e-5,-5.634231e-4,-1.704933e-4,4.705649e-4,-7.861084e-4,0.003874618,3.083956e-4,-6.507554e-4,-2.294363e-4,-3.132923e-4,-4.298984e-4,7.560011e-5,7.4415e-5,1.323139e-4,-3.265924e-4,-6.316093e-4,-6.848928e-4,-1.635973e-5
Feedback,1,1,20,f,2021.2.3,2021_Nov_16_1219,trial,2,39,right,incongruent,congruent,n,Feedback,TRUE,n,TRUE,611.1489000613799,NA,160,0.002851232,8.143967e-4,0.001032728,0.001113628,7.832309e-4,0.001745056,7.95681e-4,-4.210885e-4,2.092172e-4,8.129491e-5,0.00596419,0.001443143,5.761306e-4,-1.594818e-4,-8.722238e-5,4.269422e-4,1.959547e-4,9.246282e-4,3.458166e-4,-4.685636e-4
Feedback,1,1,20,f,2021.2.3,2021_Nov_16_1219,trial,2,40,left,congruent,incongruent,g,Feedback,TRUE,g,TRUE,626.9121999503113,NA,161,-8.325602e-4,-0.001081885,-0.001332303,8.236675e-4,1.151813e-5,-7.230458e-4,-9.565882e-4,-0.001173686,-4.206812e-4,-9.589433e-4,-4.09052e-5,-5.270522e-4,4.556648e-4,-5.313805e-4,-2.426305e-5,4.580093e-5,2.191872e-4,-6.138986e-4,3.810854e-4,1.722025e-4
Feedback,1,1,20,f,2021.2.3,2021_Nov_16_1219,trial,2,41,right,incongruent,congruent,j,Feedback,TRUE,j,TRUE,378.64869995974004,NA,162,0.001011011,-4.603551e-4,-2.476266e-4,-4.743945e-4,0.002701954,3.22791e-4,-2.90202e-4,-4.93485e-4,-3.095441e-4,0.003793098,0.002424138,-3.928747e-4,-3.705736e-4,-3.074226e-4,0.004348298,0.005131841,0.001190154,7.194703e-4,-1.14307e-4,5.226344e-4
Feedback,1,1,20,f,2021.2.3,2021_Nov_16_1219,trial,2,42,left,congruent,congruent,g,Feedback,FALSE,NA,NA,NA,NA,163,5.632681e-4,0.002184704,0.001705249,2.348768e-4,5.953903e-4,2.434505e-4,2.8074e-4,3.73485e-4,6.927741e-4,5.07599e-4,3.738952e-4,4.843854e-4,1.609738e-4,3.779067e-4,4.708534e-5,-2.48595e-4,-2.237817e-5,4.023958e-4,-2.896262e-5,8.867937e-6
Feedback,1,1,20,f,2021.2.3,2021_Nov_16_1219,trial,2,43,right,congruent,congruent,n,Feedback,TRUE,n,TRUE,490.1727999676948,NA,164,7.785081e-4,5.672635e-4,0.002121066,0.00120053,3.61687e-4,1.935491e-4,0.002833572,-2.449118e-4,9.435751e-4,4.11418e-4,3.098517e-4,2.565563e-4,3.523511e-4,2.919274e-4,2.631187e-4,5.035567e-4,0.006382364,0.003069748,6.559839e-4,-9.950384e-5
Feedback,1,1,20,f,2021.2.3,2021_Nov_16_1219,trial,2,44,left,congruent,incongruent,g,Feedback,TRUE,f,FALSE,409.9846999743022,NA,165,-2.055988e-5,1.213665e-4,0.001910956,0.001024606,4.894566e-4,-4.942691e-4,-2.613547e-4,1.761757e-4,9.997266e-4,2.018616e-4,-1.495149e-4,-3.796393e-4,0.001664248,0.00437404,0.001849869,-4.584168e-5,-6.41355e-4,-6.485219e-4,-7.273769e-5,2.027669e-4
Feedback,1,1,20,f,2021.2.3,2021_Nov_16_1219,trial,2,45,right,incongruent,congruent,j,Feedback,TRUE,j,TRUE,473.70140004204586,NA,166,7.772089e-4,3.420422e-4,4.423249e-4,3.196206e-5,0.002345695,3.541901e-4,1.672818e-4,0.002762016,8.359388e-4,-1.705396e-4,2.408633e-6,4.168123e-5,6.563874e-4,-6.36591e-5,4.992547e-4,-9.54303e-6,-3.996736e-4,2.866541e-4,2.262975e-4,2.095179e-4
Feedback,1,1,20,f,2021.2.3,2021_Nov_16_1219,trial,2,46,left,congruent,congruent,f,Feedback,TRUE,f,TRUE,481.29629995673895,NA,167,8.846819e-5,0.003262813,0.002500729,-2.825167e-6,-6.769337e-4,-6.861473e-5,5.875987e-4,-4.892033e-4,0.002320047,-1.886524e-4,2.1388e-4,0.002444511,0.006027548,0.001891579,2.796942e-4,-2.861914e-5,4.220636e-4,1.156673e-4,1.93378e-4,3.83007e-4
Feedback,1,1,20,f,2021.2.3,2021_Nov_16_1219,trial,2,47,right,congruent,congruent,j,Feedback,TRUE,j,TRUE,417.1212999499403,NA,168,0.00292037,0.004126141,0.002888694,0.001374781,3.592526e-4,-5.862652e-5,0.003288096,0.003799561,0.001335933,6.983755e-6,9.397743e-4,0.003319334,0.002920872,0.001186413,1.107757e-4,-8.8974e-4,0.001486442,0.004219681,0.004239313,-1.11853e-4
Feedback,1,1,20,f,2021.2.3,2021_Nov_16_1219,trial,2,48,left,congruent,congruent,g,Feedback,TRUE,g,TRUE,416.89970006700605,NA,169,0.001053164,0.001538509,-1.651398e-5,2.253165e-4,1.939442e-4,-2.699972e-4,0.001882062,4.819287e-4,-7.824956e-4,0.001706521,-4.354321e-4,8.732891e-4,-5.422253e-5,0.001326059,9.642052e-5,-6.099748e-4,-7.276554e-4,-0.001249157,-9.750463e-4,-9.917879e-4
Feedback,1,1,20,f,2021.2.3,2021_Nov_16_1219,trial,2,49,right,congruent,incongruent,j,Feedback,TRUE,j,TRUE,552.4480000021867,NA,170,-2.054831e-4,-4.9289e-4,3.689295e-4,0.001693724,0.001649777,0.003341153,-1.265737e-4,-6.92294e-5,1.921633e-4,-8.644327e-5,1.959005e-4,6.77285e-4,5.622766e-4,9.702247e-4,9.334492e-4,7.390145e-4,-2.947618e-4,1.722714e-5,6.903123e-4,4.570096e-4
Feedback,1,1,20,f,2021.2.3,2021_Nov_16_1219,trial,2,50,left,incongruent,incongruent,g,Feedback,TRUE,g,TRUE,640.3504999470895,NA,171,3.178373e-4,7.360019e-4,0.001451647,-3.154892e-4,0.003208104,0.001189823,6.304435e-4,0.001211205,0.001612503,8.855688e-4,-2.985296e-4,6.775536e-4,6.659672e-4,6.31666e-5,3.997992e-4,3.349736e-4,5.930394e-5,-5.530997e-5,7.479434e-4,-2.670025e-4
Feedback,1,1,20,f,2021.2.3,2021_Nov_16_1219,trial,2,51,right,incongruent,incongruent,n,Feedback,TRUE,n,TRUE,504.0342999855054,NA,172,5.365268e-4,2.723825e-4,0.001110176,0.002903367,0.00205712,-1.150894e-4,-4.399302e-4,5.680248e-4,0.001443681,-7.643618e-4,2.956409e-4,3.193179e-4,4.455344e-4,0.001875829,0.004243783,0.001275859,6.18677e-4,8.974578e-4,6.536553e-4,-5.564082e-5
Feedback,1,1,20,f,2021.2.3,2021_Nov_16_1219,trial,2,52,left,incongruent,incongruent,g,Feedback,TRUE,g,TRUE,551.7217999440618,NA,173,-9.799306e-5,1.790442e-4,0.001217052,9.084966e-4,5.81017e-4,1.228394e-4,3.88358e-4,-6.980483e-4,-1.871679e-5,5.793059e-6,4.406576e-5,7.772469e-4,0.001338882,0.002550387,0.002084224,-3.13092e-5,-2.492524e-4,2.483502e-4,3.87656e-5,5.508335e-4
Feedback,1,1,20,f,2021.2.3,2021_Nov_16_1219,trial,2,53,right,incongruent,congruent,n,Feedback,TRUE,n,TRUE,503.51580005371966,NA,174,7.167296e-5,1.643978e-4,7.799177e-4,8.473794e-4,7.928014e-4,-1.584985e-4,0.003635772,7.729854e-4,5.230089e-4,2.700002e-4,-5.318719e-4,9.393517e-5,1.032862e-4,1.688105e-4,-4.924436e-4,2.384718e-4,2.07694e-4,2.318993e-5,0.003892667,0.001650343
Feedback,1,1,20,f,2021.2.3,2021_Nov_16_1219,trial,2,54,left,congruent,congruent,g,Feedback,TRUE,g,TRUE,631.2612000037914,NA,175,2.511072e-4,1.157536e-4,7.143037e-4,0.002109527,0.001690451,7.271755e-4,1.031458e-4,4.400176e-4,6.634789e-4,4.514975e-4,2.118465e-4,3.144414e-4,2.256031e-4,0.00209091,0.004161661,7.239335e-4,3.253226e-6,3.518002e-4,3.890008e-4,5.101785e-6
Feedback,1,1,20,f,2021.2.3,2021_Nov_16_1219,trial,2,55,right,congruent,incongruent,n,Feedback,TRUE,n,TRUE,518.9807000569999,NA,176,-5.585654e-5,7.284153e-4,-3.33889e-4,0.00161094,3.120978e-4,1.842687e-4,9.027079e-4,-1.724847e-4,2.191265e-4,5.636986e-4,1.167397e-4,-4.011772e-4,-1.523243e-4,-1.809847e-4,-5.98506e-4,-1.293877e-4,6.020416e-4,-1.04748e-4,3.018883e-4,-3.882673e-4
Feedback,1,1,20,f,2021.2.3,2021_Nov_16_1219,trial,2,56,left,incongruent,congruent,g,Feedback,TRUE,g,TRUE,382.684700016398,NA,177,9.177332e-4,1.543488e-4,-1.878883e-4,2.919631e-4,-2.743721e-4,5.407741e-4,-2.386284e-4,5.661659e-4,3.345285e-4,7.891245e-4,2.984251e-4,5.542162e-4,7.722826e-4,5.488612e-4,6.257934e-4,2.366852e-4,3.245161e-4,6.589588e-4,4.049086e-4,0.001224753
Feedback,1,1,20,f,2021.2.3,2021_Nov_16_1219,trial,2,57,right,congruent,congruent,n,Feedback,TRUE,n,TRUE,438.4622000507079,NA,178,0.002068398,-2.714106e-4,1.427378e-4,0.001806722,0.001814582,-2.116433e-4,3.037415e-5,8.615821e-4,7.724082e-4,0.004360311,0.004689372,3.16187e-4,5.718449e-4,0.002290922,0.003208349,6.728042e-4,4.41181e-4,9.601172e-4,0.001453719,0.001028499
Feedback,1,1,20,f,2021.2.3,2021_Nov_16_1219,trial,2,58,left,congruent,congruent,f,Feedback,TRUE,f,TRUE,486.1246000509709,NA,179,0.002283872,0.001482431,5.388116e-4,5.580531e-5,8.352674e-4,8.376315e-5,2.479996e-4,-6.458806e-4,2.955899e-4,7.199678e-4,0.005470932,0.002337982,0.002572802,3.582835e-4,5.67136e-4,5.037589e-4,0.003464122,0.001659941,0.002279683,0.004551122
Feedback,1,1,20,f,2021.2.3,2021_Nov_16_1219,trial,2,59,right,congruent,incongruent,j,Feedback,TRUE,j,TRUE,493.770900007803,NA,180,-3.684522e-5,1.162211e-4,-1.220191e-4,-6.412715e-5,0.001928241,9.733071e-4,-6.724109e-4,-7.592607e-4,4.396997e-4,7.93952e-4,5.88337e-4,7.557588e-4,3.255951e-4,-9.501027e-5,7.125444e-5,2.243068e-4,-3.213416e-4,1.766069e-4,-2.07583e-4,1.929282e-4
Feedback,1,1,20,f,2021.2.3,2021_Nov_16_1219,trial,2,60,left,incongruent,congruent,g,Feedback,TRUE,g,TRUE,421.68800003128104,NA,181,0.001253598,0.001619758,7.592498e-4,-5.872997e-4,8.589914e-5,5.459429e-4,5.672511e-4,0.001471631,3.913408e-4,-4.916906e-4,8.016755e-4,0.004216667,0.00153934,-3.774965e-5,-2.745457e-4,-3.698089e-4,-6.460445e-4,2.253449e-4,2.097314e-4,7.672713e-4
Feedback,1,1,20,f,2021.2.3,2021_Nov_16_1219,trial,2,61,right,congruent,congruent,j,Feedback,TRUE,j,TRUE,397.6717000477945,NA,182,1.448882e-5,2.096368e-4,7.575878e-4,6.230178e-4,-8.817075e-4,-0.001163412,-0.001033563,-7.255021e-4,-0.002109179,-0.002014351,-0.001189304,-8.827394e-4,4.588799e-4,0.0044276920000000004,4.742783e-5,-0.001371258,-0.001498235,-0.001482384,-0.001765108,-9.553224e-4
Feedback,1,1,20,f,2021.2.3,2021_Nov_16_1219,trial,2,62,left,congruent,congruent,g,Feedback,TRUE,g,TRUE,349.0860000019893,NA,183,0.002595739,0.001425173,0.001126019,1.587369e-4,-5.811572e-4,1.485087e-4,-6.820479e-4,8.49884e-4,0.00496949,-2.432661e-4,0.002709163,0.005623012,5.519822e-4,4.472849e-4,1.228326e-4,-5.001994e-5,-1.973453e-4,8.405116e-4,0.001353154,0.00108848
Feedback,1,1,20,f,2021.2.3,2021_Nov_16_1219,trial,2,63,right,congruent,incongruent,j,Feedback,TRUE,n,FALSE,356.98560008313507,NA,184,-5.75115e-5,-5.709752e-4,-9.026906e-4,9.749106e-4,3.461405e-4,0.002391706,0.001451015,-1.646567e-4,-8.452963e-5,1.018806e-4,3.710482e-5,-4.495418e-4,-2.293567e-4,7.195267e-4,-7.628347e-6,-2.642948e-5,4.936106e-4,2.050836e-4,6.372004e-5,-1.662271e-5
Feedback,1,1,20,f,2021.2.3,2021_Nov_16_1219,trial,2,64,left,incongruent,congruent,g,Feedback,TRUE,g,TRUE,420.8664000034332,NA,185,0.003311473,0.002688217,0.001366487,0.004199086,0.004614925,0.0033181730000000002,0.002282391,4.406336e-4,0.003439221,-1.461338e-5,2.788494e-4,0.001619979,4.360504e-4,0.001122702,0.004901182,0.001304967,5.520694e-4,-9.8755e-5,-4.852415e-4,-2.22822e-4
Feedback,1,1,20,f,2021.2.3,2021_Nov_16_1219,trial,2,65,right,congruent,congruent,n,Feedback,TRUE,n,TRUE,508.3272000192667,NA,186,0.001427752,0.001561459,-6.242469e-5,6.197535e-4,-9.090267e-5,-5.918744e-4,7.592465e-4,-3.128445e-4,-2.78485e-4,-3.590994e-5,0.002551075,0.005089973,0.002487211,0.001523252,0.001110263,8.426267e-4,0.001502251,8.719568e-4,5.729573e-4,3.565197e-4
Feedback,1,1,20,f,2021.2.3,2021_Nov_16_1219,trial,2,66,left,congruent,incongruent,g,Feedback,TRUE,g,TRUE,508.0567999975756,NA,187,-6.900539e-4,-9.716791e-5,-1.507578e-5,-1.866142e-4,-4.566051e-4,1.651002e-5,1.341372e-4,-4.377072e-4,2.320851e-4,-1.443552e-4,-1.024131e-4,8.233243e-4,9.257547e-4,1.273197e-4,5.316022e-4,-9.695091e-5,-2.192106e-4,-6.175961e-5,-1.11801e-4,0.00139353
Feedback,1,1,20,f,2021.2.3,2021_Nov_16_1219,trial,2,67,right,incongruent,incongruent,j,Feedback,TRUE,j,TRUE,531.8028999608939,NA,188,-2.527253e-4,-4.718902e-4,-5.738593e-4,-0.001174355,-1.334585e-4,2.435846e-4,0.001558971,-5.222405e-4,-0.00124725,-2.515451e-4,2.255893e-4,2.084197e-4,8.819528e-4,0.001073093,1.525211e-4,7.294176e-4,0.006261467,0.002883557,5.716727e-4,3.128576e-4
Feedback,1,1,20,f,2021.2.3,2021_Nov_16_1219,trial,2,68,left,incongruent,congruent,g,Feedback,TRUE,g,TRUE,443.5358999762684,NA,189,-0.001061399,1.999924e-4,3.853436e-4,-4.045567e-4,1.501001e-4,-5.903884e-4,-4.082513e-4,-6.638027e-4,4.412537e-4,0.002264632,2.340193e-4,1.010898e-5,7.821074e-4,4.062445e-4,-5.291076e-6,1.603349e-4,3.826777e-4,9.857353e-4,4.783105e-4,0.001483858
Feedback,1,1,20,f,2021.2.3,2021_Nov_16_1219,trial,2,69,right,congruent,incongruent,n,Feedback,TRUE,n,TRUE,443.24000005144626,NA,190,-8.907891e-5,-1.56834e-4,-2.076395e-4,6.342959e-5,-2.570006e-4,-0.001260359,-4.640829e-4,1.96544e-5,0.001250193,0.001048674,-9.218996e-4,-7.800749e-4,-1.517421e-4,-2.855867e-4,-2.030969e-4,-2.790149e-4,3.849703e-5,-9.584315e-4,0.001684711,0.007002352
Feedback,1,1,20,f,2021.2.3,2021_Nov_16_1219,trial,2,70,left,incongruent,incongruent,f,Feedback,TRUE,f,TRUE,491.0467999870889,NA,191,9.722447e-4,0.0010568,0.001177925,8.387712e-4,7.545901e-4,-2.182536e-4,0.001451593,6.139223e-4,0.001152124,0.002902078,-2.296751e-4,-2.817201e-4,-4.97509e-5,3.419588e-4,1.6414e-4,6.162858e-4,5.884288e-4,0.001351782,4.61332e-4,0.006182585
Feedback,1,1,20,f,2021.2.3,2021_Nov_16_1219,trial,2,71,right,incongruent,congruent,j,Feedback,TRUE,j,TRUE,514.6851000608876,NA,192,-0.001457828,-0.0018228230000000001,-0.001008877,-0.001483471,0.001589202,-9.751755e-4,-0.001912341,-0.001027935,-0.001029445,-0.001320258,5.690078e-4,5.572473e-4,0.001345268,0.001815272,0.002063143,6.746688e-4,2.810377e-4,3.042142e-5,6.042243e-4,0.001251426
Feedback,1,1,20,f,2021.2.3,2021_Nov_16_1219,trial,2,72,left,congruent,incongruent,g,Feedback,TRUE,g,TRUE,482.4829999706708,NA,193,1.540266e-4,7.162017e-4,0.001155488,0.001332227,8.127617e-4,9.888527e-4,7.971099e-4,5.986823e-4,1.570168e-4,0.00426029,2.004663e-4,9.107799e-5,-1.7581e-4,4.96679e-4,-1.201174e-4,-2.568413e-5,2.453725e-4,1.275318e-4,-3.702938e-4,3.257367e-4
Feedback,1,1,20,f,2021.2.3,2021_Nov_16_1219,trial,2,73,right,incongruent,congruent,j,Feedback,TRUE,j,TRUE,418.0895999888887,NA,194,-4.492819e-4,5.746339e-4,-2.493407e-4,0.001563021,9.126659e-5,-5.557438e-4,1.097471e-4,5.699645e-4,8.094497e-5,3.644056e-5,-2.757836e-4,1.592971e-4,5.87634e-4,1.547725e-4,-3.546415e-4,-3.769327e-4,1.044954e-4,-1.427396e-4,-3.299703e-4,-4.578204e-4
Feedback,1,1,20,f,2021.2.3,2021_Nov_16_1219,trial,2,74,left,congruent,incongruent,g,Feedback,TRUE,f,FALSE,425.9396000416018,NA,195,1.173071e-5,-2.586865e-5,1.191432e-4,4.028175e-4,1.058339e-4,-4.339211e-4,9.236727e-4,3.195135e-6,4.543597e-4,-2.401029e-4,2.541007e-4,4.774799e-4,8.972057e-4,2.586587e-4,2.320523e-4,2.431418e-4,4.80116e-4,0.001661263,3.421102e-4,5.425697e-4
Feedback,1,1,20,f,2021.2.3,2021_Nov_16_1219,trial,2,75,right,incongruent,incongruent,n,Feedback,TRUE,n,TRUE,521.7166999937035,NA,196,-2.857663e-4,-5.699713e-4,3.735835e-4,3.725856e-4,6.618539e-4,6.075553e-5,-6.972326e-4,-8.13341e-4,-4.149026e-4,7.138636e-4,2.325225e-4,2.521938e-4,0.001697409,0.002839664,0.002309064,8.63441e-4,8.806518e-4,7.913869e-4,8.211804e-4,0.00146849
Feedback,1,1,20,f,2021.2.3,2021_Nov_16_1219,trial,2,76,left,incongruent,incongruent,f,Feedback,TRUE,f,TRUE,513.115200039465,NA,197,0.001064394,9.353003e-4,0.001788045,-5.007559e-5,-1.291623e-4,6.294809e-5,7.65071e-4,-4.490807e-4,1.080376e-4,0.004483976,0.001774866,0.001472168,4.956722e-4,5.944816e-4,6.219874e-4,3.999834e-4,0.00244314,0.001942793,8.513955e-4,7.401843e-4
Feedback,1,1,20,f,2021.2.3,2021_Nov_16_1219,trial,2,77,right,incongruent,incongruent,n,Feedback,TRUE,n,TRUE,705.1258000428788,NA,198,-0.001149203,-0.001400211,-3.69583e-4,-7.174974e-4,-4.680597e-4,-9.4877e-4,-9.770603e-4,-9.504517e-4,0.002054807,-6.663818e-4,-5.106334e-4,2.04424e-4,0.001714911,8.780597e-4,3.142527e-4,0.001077644,4.350059e-4,6.551564e-4,0.00718371,0.001792771
Feedback,1,1,20,f,2021.2.3,2021_Nov_16_1219,trial,2,78,left,incongruent,congruent,f,Feedback,TRUE,f,TRUE,616.8317000265233,NA,199,-7.979902e-4,-5.99938e-4,-5.032634e-4,-6.097564e-4,0.004122964,-2.931266e-4,0.001039994,0.001442802,-1.822188e-4,-2.232557e-4,-4.137517e-5,0.001002465,0.001286981,0.001197392,0.007539541,0.003469153,0.002027808,0.006512761,0.003557386,-9.965326e-5
Feedback,1,1,20,f,2021.2.3,2021_Nov_16_1219,trial,2,79,right,congruent,congruent,n,Feedback,TRUE,n,TRUE,568.6294000479393,NA,200,-2.976726e-4,-3.302821e-4,4.748167e-4,-5.520985e-4,1.59008e-4,-7.707985e-4,-2.441155e-4,-3.802541e-4,-2.455814e-4,-2.708992e-4,7.893693e-4,3.964396e-4,0.001132093,0.001488863,9.4703e-4,4.03878e-4,7.589387e-4,0.001125852,4.243651e-4,2.956646e-4
Feedback,1,1,20,f,2021.2.3,2021_Nov_16_1219,trial,2,80,left,congruent,incongruent,f,Feedback,TRUE,f,TRUE,600.3518999787045,NA,201,-1.805394e-4,4.130728e-4,-7.024668e-4,-2.574576e-4,4.033349e-5,1.60886e-5,-8.057992e-4,2.849703e-4,-8.711801e-5,-5.650485e-4,1.993697e-4,2.506734e-4,4.143465e-4,2.162677e-4,2.487962e-4,-3.048124e-4,-5.340615e-4,-1.782252e-4,-1.545799e-4,-6.473605e-4
Feedback,1,1,20,f,2021.2.3,2021_Nov_16_1219,trial,2,81,right,incongruent,congruent,n,Feedback,TRUE,n,TRUE,432.0379000273533,NA,202,4.191184e-4,-0.001293324,-7.058424e-4,-3.823088e-4,2.323794e-4,0.001323845,9.930898e-4,2.032255e-4,-9.068055e-5,-2.745665e-4,7.386385e-4,7.466524e-4,6.605797e-4,0.002112759,8.814613e-4,0.006167068,0.00101216,0.001165577,3.834573e-4,6.661076e-4
Feedback,1,1,20,f,2021.2.3,2021_Nov_16_1219,trial,2,82,left,congruent,incongruent,f,Feedback,TRUE,f,TRUE,663.6440999573097,NA,203,-0.003318215,-0.003709141,-0.004462949,-0.003462128,-0.003722687,-0.00364236,-0.00312363,-0.003973973,-0.003082712,-0.003984916,-2.976505e-4,-5.711697e-5,5.955625e-4,2.734388e-4,6.90149e-4,8.960518e-4,8.985947e-4,5.035979e-4,0.001470907,0.002182752
Feedback,1,1,20,f,2021.2.3,2021_Nov_16_1219,trial,2,83,right,incongruent,congruent,n,Feedback,TRUE,n,TRUE,503.4138000337407,NA,204,-9.098379e-4,-8.844864e-5,0.002659048,2.298891e-4,5.809944e-4,1.291463e-4,7.968862e-6,6.884981e-4,1.5674e-4,0.004935689,1.293019e-5,-1.716906e-4,7.84217e-4,4.435039e-4,0.00177096,2.449301e-4,9.445508e-4,7.788173e-5,0.001520287,8.552655e-4
Feedback,1,1,20,f,2021.2.3,2021_Nov_16_1219,trial,2,84,left,congruent,congruent,g,Feedback,TRUE,g,TRUE,398.99229997536145,NA,205,0.001551807,0.002894159,0.004255557,0.003641073,0.002558361,0.002153962,3.332961e-4,3.356789e-5,-6.191363e-5,8.584112e-4,4.326787e-4,0.0104071,0.007056906,0.003353906,0.003879233,0.00458599,2.951096e-4,0.002775101,3.649266e-4,1.72161e-4
Feedback,1,1,20,f,2021.2.3,2021_Nov_16_1219,trial,2,85,right,congruent,incongruent,j,Feedback,TRUE,n,FALSE,446.87589997192845,NA,206,4.268496e-4,4.04041e-4,9.352178e-4,0.001365249,8.060015e-4,5.949151e-4,0.002518984,9.968276e-4,1.888163e-4,-1.184952e-4,0.001248738,3.441914e-4,0.002189921,0.001529676,-1.330599e-4,9.673412e-4,7.256542e-4,7.46564e-4,-5.624843e-4,-5.629067e-4
Feedback,1,1,20,f,2021.2.3,2021_Nov_16_1219,trial,2,86,left,incongruent,incongruent,g,Feedback,TRUE,g,TRUE,742.7564000245184,NA,207,-7.495021e-4,-0.001197152,0.002417926,9.323312e-4,5.723941e-4,8.803769e-5,5.501378e-4,1.699498e-4,-7.677127e-4,-6.190913e-4,4.007702e-4,6.181368e-4,2.6528e-4,0.001323526,6.706896e-5,7.634575e-5,1.420851e-4,-2.850964e-4,-1.575573e-4,-2.428318e-4
Feedback,1,1,20,f,2021.2.3,2021_Nov_16_1219,trial,2,87,right,incongruent,incongruent,n,Feedback,TRUE,n,TRUE,510.3798000491224,NA,208,1.456405e-4,0.001085785,-2.855896e-4,-9.329745e-4,-4.982471e-4,-0.00138471,-0.001108352,-8.819129e-4,0.002042238,-7.144106e-4,9.367859e-4,-1.386788e-4,0.001091525,0.001078549,0.001511988,0.002310069,-9.711634e-5,9.559423e-4,-2.516618e-4,7.818954e-4
Feedback,1,1,20,f,2021.2.3,2021_Nov_16_1219,trial,2,88,left,incongruent,congruent,g,Feedback,TRUE,g,TRUE,470.1738999574443,NA,209,7.910709e-4,-7.22292e-4,2.655917e-4,5.412203e-4,0.001125674,0.00279871,0.001555103,0.001350887,-5.118083e-6,6.248521e-4,6.656399e-4,0.001747327,-1.859718e-4,-1.339508e-4,0.001552814,0.004087,0.001287924,3.171072e-4,6.824755e-4,4.745638e-4
Feedback,1,1,20,f,2021.2.3,2021_Nov_16_1219,trial,2,89,right,congruent,incongruent,n,Feedback,TRUE,n,TRUE,445.88369998382404,NA,210,0.001486601,5.563628e-4,0.004816979,0.00157569,5.785723e-4,1.666369e-5,3.820052e-6,6.398086e-4,8.114064e-4,-3.080722e-4,8.541788e-5,5.561484e-4,0.005905289,0.005263772,0.001374964,6.245968e-4,2.405824e-4,2.954175e-4,7.72352e-4,5.053674e-4
Feedback,1,1,20,f,2021.2.3,2021_Nov_16_1219,trial,2,90,left,incongruent,congruent,f,Feedback,TRUE,f,TRUE,533.7006000336262,NA,211,5.226161e-4,9.813905e-4,2.587715e-4,-2.498475e-4,1.25498e-5,8.510165e-4,-6.105577e-4,0.00142727,0.002647539,8.144584e-4,1.270126e-4,4.370394e-5,-1.000089e-4,-1.731843e-4,-1.448253e-5,-1.395121e-4,1.159124e-5,0.001119424,0.004625698,2.762311e-4
Feedback,1,1,20,f,2021.2.3,2021_Nov_16_1219,trial,2,91,right,congruent,congruent,n,Feedback,TRUE,n,TRUE,437.4136999831537,NA,212,2.130328e-4,0.004554611,0.002359316,9.103082e-4,0.003059264,-3.140916e-4,0.001579138,7.672878e-4,6.372668e-5,8.310082e-4,-4.757945e-4,0.001779981,0.005647201,0.001013164,0.002531375,-3.357792e-4,-1.205566e-4,7.803089e-4,-6.624882e-5,8.110378e-4
Feedback,1,1,20,f,2021.2.3,2021_Nov_16_1219,trial,2,92,left,congruent,congruent,f,Feedback,TRUE,f,TRUE,509.1295999591239,NA,213,2.07857e-4,4.916021e-4,-7.846975e-5,-2.292509e-4,5.333172e-4,3.792886e-4,-1.257567e-4,3.103539e-4,-5.82363e-5,-4.001203e-4,5.731577e-4,1.744264e-4,-1.176598e-4,3.873658e-4,3.701593e-4,2.698477e-4,4.584799e-4,8.076371e-6,2.121748e-4,7.68608e-4
Feedback,1,1,20,f,2021.2.3,2021_Nov_16_1219,trial,2,93,right,congruent,congruent,n,Feedback,TRUE,n,TRUE,412.5745999626813,NA,214,5.971265e-4,0.001865053,5.30266e-4,2.128212e-4,4.5904e-4,-2.976699e-4,7.727649e-5,2.348637e-4,-1.89567e-4,4.079165e-4,0.002362158,0.002808087,7.487541e-4,-1.048652e-4,4.562656e-4,-1.368311e-5,1.173152e-5,-4.043555e-4,3.170755e-4,-2.764281e-4
Feedback,1,1,20,f,2021.2.3,2021_Nov_16_1219,trial,2,94,left,congruent,congruent,f,Feedback,TRUE,f,TRUE,492.6586999790745,NA,215,2.677215e-4,-1.814717e-4,4.57685e-4,-3.35051e-4,-3.401123e-4,-1.694451e-4,-2.039347e-4,-2.325713e-4,4.023989e-5,7.170457e-4,5.38384e-4,3.435649e-4,2.055935e-4,2.069897e-4,-2.443182e-4,1.673996e-4,7.938967e-4,9.63282e-4,-2.224868e-4,-1.436602e-4
Feedback,1,1,20,f,2021.2.3,2021_Nov_16_1219,trial,2,95,right,congruent,incongruent,j,Feedback,TRUE,j,TRUE,580.2586999488994,NA,216,6.854064e-4,-5.205607e-4,5.204151e-4,-4.029535e-4,-4.123438e-4,-1.517171e-5,3.373378e-4,5.635635e-4,-7.240567e-6,7.914142e-4,7.618684e-4,7.51153e-5,2.568231e-4,5.979871e-4,1.090943e-4,4.089301e-4,5.823587e-4,0.001528367,0.001156949,9.767609e-4
Feedback,1,1,20,f,2021.2.3,2021_Nov_16_1219,trial,2,96,left,incongruent,congruent,f,Feedback,TRUE,f,TRUE,484.09699997864664,NA,217,3.073926e-4,-5.27231e-5,-6.107986e-4,-1.297439e-4,-5.680551e-4,-7.50643e-4,8.301367e-5,-5.881116e-5,3.289902e-4,-2.838313e-4,-1.104261e-4,-2.976074e-4,3.507134e-5,2.093028e-4,6.803867e-4,-1.510764e-4,1.470797e-5,-3.105961e-5,-1.360252e-4,7.986838e-4
Feedback,1,1,20,f,2021.2.3,2021_Nov_16_1219,trial,2,97,right,congruent,congruent,j,Feedback,TRUE,j,TRUE,515.8212000387721,NA,218,-1.009663e-4,-3.816229e-4,-2.16668e-4,-3.620754e-4,1.324739e-4,-8.59159e-4,-0.00054526590000000005,-2.390018e-4,2.065334e-4,-6.08878e-4,7.658303e-4,2.815824e-4,3.328862e-4,0.001357807,4.117271e-4,9.105436e-5,2.171067e-4,5.384317e-4,-2.695075e-4,-6.282772e-5
Feedback,1,1,20,f,2021.2.3,2021_Nov_16_1219,trial,3,1,right,congruent,congruent,j,Feedback,TRUE,j,TRUE,468.5598000069149,NA,219,0.002642547,0.004192295,0.001459386,1.705138e-4,-2.396984e-4,-9.097313e-4,7.791212e-5,6.254576e-5,-3.521021e-4,-3.505629e-4,0.004284563,0.001768857,0.002222553,0.002948484,0.001065242,2.534321e-4,7.476839e-4,0.001482294,5.244524e-4,1.65627e-4
Feedback,1,1,20,f,2021.2.3,2021_Nov_16_1219,trial,3,2,left,congruent,incongruent,f,Feedback,TRUE,f,TRUE,1012.1025000116786,NA,220,0.003171634,-0.002660366,-0.001891772,-0.003681595,-0.002991503,-0.002657017,-0.003189439,-0.002965055,-0.003044244,-0.001999349,1.280487e-5,6.863335e-5,6.400137e-4,9.160246e-4,0.001492236,0.002562824,0.001512278,0.00175231,8.143479e-4,0.001001972
Feedback,1,1,20,f,2021.2.3,2021_Nov_16_1219,trial,3,3,right,incongruent,incongruent,n,Feedback,TRUE,n,TRUE,596.0242000292055,NA,221,-8.078385e-5,5.951189e-4,-8.965447e-5,-2.215984e-4,-4.614682e-4,-1.628823e-4,-1.609584e-4,-2.173856e-4,1.733913e-5,0.001937666,4.756612e-4,-1.869685e-4,-8.431345e-5,-1.153424e-4,3.091708e-4,8.80193e-5,-8.581931e-4,-1.566086e-4,-9.19111e-4,-8.475268e-5
Feedback,1,1,20,f,2021.2.3,2021_Nov_16_1219,trial,3,4,left,incongruent,congruent,f,Feedback,TRUE,f,TRUE,395.78750001965113,NA,222,-0.00115309,8.805329e-4,1.769871e-4,-6.092116e-4,-8.919954e-4,-5.492943e-4,-0.00167204,-8.013337e-4,-7.18724e-4,-5.931284e-4,4.329836e-4,0.001960711,0.004134188,9.791487e-4,2.766589e-4,-1.34547e-4,0.001010138,8.119023e-4,1.832397e-4,7.954193e-6
Feedback,1,1,20,f,2021.2.3,2021_Nov_16_1219,trial,3,5,right,congruent,congruent,j,Feedback,TRUE,j,TRUE,403.37160002673045,NA,223,7.603266e-4,0.001484374,4.837199e-4,7.840507e-4,4.489813e-5,0.004317856,0.001067508,7.540826e-4,4.530833e-4,6.203353e-5,3.804442e-4,-3.548315e-4,-1.046923e-5,-6.928988e-4,-1.841026e-4,-3.269635e-4,-6.14198e-4,-3.708955e-4,-2.739943e-4,-5.136313e-4
Feedback,1,1,20,f,2021.2.3,2021_Nov_16_1219,trial,3,6,left,congruent,incongruent,f,Feedback,TRUE,f,TRUE,483.2399000297303,NA,224,-8.24078e-4,-6.719825e-4,0.002088127,0.002514908,-2.347035e-4,0.002325182,0.001625724,-7.9402e-5,0.001629282,3.899541e-4,4.340282e-4,3.614916e-4,0.001659021,0.005320487,0.005329853,0.00197607,0.00136692,0.002833235,9.308562e-4,0.001048131
Feedback,1,1,20,f,2021.2.3,2021_Nov_16_1219,trial,3,7,right,incongruent,incongruent,j,Feedback,TRUE,j,TRUE,659.103600017261,NA,225,-0.001016018,-9.799585e-4,-7.045632e-4,-8.435366e-4,-0.001216269,0.005825709,0.001505921,8.113766e-4,2.061599e-4,0.002408967,4.315869e-4,7.172895e-4,9.183548e-4,0.0010129,9.179841e-4,0.006724998,0.005745822,0.001981167,0.002323453,0.002946904
Feedback,1,1,20,f,2021.2.3,2021_Nov_16_1219,trial,3,8,left,incongruent,congruent,f,Feedback,TRUE,f,TRUE,378.67689999984555,NA,226,-2.264392e-4,-2.704328e-5,-6.991229e-5,-5.833914e-4,-7.563788e-4,1.884764e-4,-3.410005e-4,0.002046837,-7.973844e-5,6.66253e-4,7.467362e-4,3.625682e-4,0.001029893,5.005588e-4,6.527034e-4,7.504011e-4,8.222504e-4,0.003015451,0.00245679,0.006812723
Feedback,1,1,20,f,2021.2.3,2021_Nov_16_1219,trial,3,9,right,congruent,congruent,n,Feedback,TRUE,n,TRUE,514.5424000220373,NA,227,-7.414704e-4,-6.516743e-5,-3.905897e-4,0.00251943,-0.001341759,-9.739385e-4,-0.001116296,1.909912e-4,-0.001039712,0.001875962,5.282473e-5,8.780544e-4,0.001342102,0.004145144,-1.007933e-4,3.765243e-4,4.066213e-5,0.003856689,5.151446e-4,0.0013382
Feedback,1,1,20,f,2021.2.3,2021_Nov_16_1219,trial,3,10,left,congruent,congruent,f,Feedback,TRUE,f,TRUE,498.0720999883488,NA,228,2.399052e-4,-3.150036e-5,-3.743594e-4,0.005190105,0.00243845,7.824076e-4,4.149182e-4,1.853292e-4,9.393208e-4,9.138563e-4,2.899457e-5,6.504576e-4,6.913685e-4,0.003895189,0.007779636,0.001256051,0.001858557,1.071738e-4,5.643739e-5,2.354184e-4
Feedback,1,1,20,f,2021.2.3,2021_Nov_16_1219,trial,3,11,right,congruent,congruent,n,Feedback,TRUE,n,TRUE,377.77389999246225,NA,229,3.008014e-4,-5.907132e-4,-0.001206024,-3.013816e-4,-2.559714e-4,-1.541781e-4,-4.012592e-4,6.983825e-4,-6.966945e-4,-8.520738e-4,-7.06563e-5,4.180266e-4,-1.341293e-4,-1.938856e-4,-8.610974e-5,2.946854e-4,4.387409e-4,1.693284e-5,1.531991e-4,-1.037528e-4
Feedback,1,1,20,f,2021.2.3,2021_Nov_16_1219,trial,3,12,left,congruent,incongruent,f,Feedback,TRUE,g,FALSE,441.597199998796,NA,230,-3.989658e-4,-7.926486e-5,5.698409e-4,0.001186322,-2.918602e-5,-1.43942e-4,-9.758363e-4,5.206913e-4,-0.00153386,-4.400052e-4,3.349751e-4,-3.158365e-5,0.002500719,0.001805466,0.0011852,3.646408e-4,-2.386802e-4,7.55382e-4,2.273667e-5,2.559497e-4
Feedback,1,1,20,f,2021.2.3,2021_Nov_16_1219,trial,3,13,right,incongruent,congruent,j,Feedback,TRUE,j,TRUE,369.2509999964386,NA,231,5.394821e-4,9.555509e-4,1.628164e-4,6.559656e-4,5.009186e-4,0.00375805,4.541797e-4,2.142428e-4,9.214163e-4,4.534952e-4,-5.002545e-4,-9.112083e-5,8.019278e-4,6.792175e-4,-4.184249e-4,0.001183006,-2.427021e-4,-1.482004e-4,-4.665329e-4,-2.520726e-4
Feedback,1,1,20,f,2021.2.3,2021_Nov_16_1219,trial,3,14,left,congruent,congruent,g,Feedback,TRUE,g,TRUE,441.15070003317646,NA,232,-1.915421e-4,-3.318852e-4,3.074671e-4,1.497397e-4,-7.468276e-5,-5.214009e-5,2.582981e-4,2.686945e-4,3.697269e-4,5.629901e-4,-2.319999e-4,4.527958e-4,-8.042349e-4,-4.880611e-4,3.967301e-4,6.353131e-4,5.819881e-4,-3.14866e-4,-1.996967e-4,1.04323e-4
Feedback,1,1,20,f,2021.2.3,2021_Nov_16_1219,trial,3,15,right,congruent,congruent,n,Feedback,TRUE,n,TRUE,464.85889999894425,NA,233,4.734921e-4,4.121927e-4,4.160092e-4,5.931288e-4,0.00117855,0.001144262,5.264219e-4,0.002561917,9.24096e-4,-1.699263e-4,-1.56428e-4,-1.94102e-4,-6.874307e-5,4.249288e-4,2.014592e-4,0.001186906,5.699938e-4,0.006917663,0.006373363,3.275704e-4
Feedback,1,1,20,f,2021.2.3,2021_Nov_16_1219,trial,3,16,left,congruent,congruent,g,Feedback,TRUE,g,TRUE,384.44049993995577,NA,234,-6.144431e-4,-8.428199e-4,-3.585627e-4,-7.721442e-4,-8.674529e-4,-0.001100466,-8.995545e-4,-0.00100648,-7.490097e-4,-1.832924e-4,9.217278e-4,1.805459e-4,1.538622e-4,5.107726e-4,1.292684e-4,-7.671025e-5,7.455173e-5,3.14315e-4,5.707648e-4,2.809037e-4
Feedback,1,1,20,f,2021.2.3,2021_Nov_16_1219,trial,3,17,right,congruent,congruent,n,Feedback,TRUE,n,TRUE,408.30740006640553,NA,235,-4.993633e-4,-3.013064e-4,2.068076e-4,2.727222e-4,3.904121e-4,0.001193654,2.398994e-5,0.004000684,0.001452534,6.14767e-4,1.515914e-4,6.167214e-4,3.813631e-4,-1.396238e-4,5.382928e-5,7.981753e-4,5.833832e-4,0.003743756,0.005024155,0.00160775
Feedback,1,1,20,f,2021.2.3,2021_Nov_16_1219,trial,3,18,left,congruent,congruent,g,Feedback,TRUE,g,TRUE,456.0165000730194,NA,236,1.89953e-4,0.001025053,-1.705554e-4,0.001104352,6.415206e-4,3.239482e-4,0.001218444,0.002879008,0.003964499,0.001615002,9.456527e-5,2.907435e-4,8.069986e-5,5.316933e-4,6.247025e-4,-2.279452e-4,3.856005e-4,0.001409701,0.005578696,0.003202432
Feedback,1,1,20,f,2021.2.3,2021_Nov_16_1219,trial,3,19,right,congruent,incongruent,n,Feedback,TRUE,n,TRUE,431.67739995988086,NA,237,-1.024827e-5,1.868233e-5,0.001010762,0.001515234,0.001622849,5.651913e-4,-3.563445e-4,0.00150575,0.001234658,8.292897e-4,-9.009687e-4,-5.444179e-4,-5.560943e-4,-7.652637e-4,-2.440171e-4,-7.66611e-4,7.531308e-4,0.004642858,0.002751282,-1.561386e-4
Feedback,1,1,20,f,2021.2.3,2021_Nov_16_1219,trial,3,20,left,incongruent,congruent,g,Feedback,TRUE,g,TRUE,399.49970005545765,NA,238,-0.001594568,-7.037378e-4,-0.001285681,-5.720654e-4,-5.990113e-4,-9.070574e-4,-0.001409591,-6.445237e-4,-0.001394499,-0.00136009,-4.418453e-4,4.976444e-4,-1.119813e-4,-1.950486e-5,-3.211054e-4,3.246247e-4,-2.937738e-4,-2.866958e-4,2.291704e-4,4.946882e-4
Feedback,1,1,20,f,2021.2.3,2021_Nov_16_1219,trial,3,21,right,congruent,congruent,n,Feedback,TRUE,n,TRUE,367.0622000354342,NA,239,-0.001098444,-3.497803e-4,-3.656112e-4,-9.70589e-4,-6.168713e-4,-4.450809e-4,-6.009268e-4,-0.001007323,-0.001020708,-6.115488e-4,4.698181e-4,0.006299652,0.00743233,0.002289539,0.006883013,0.004219086,0.002571646,0.001316878,0.001944983,0.003429081
Feedback,1,1,20,f,2021.2.3,2021_Nov_16_1219,trial,3,22,left,congruent,congruent,g,Feedback,TRUE,g,TRUE,678.7551000597889,NA,240,0.001196657,4.10364e-5,1.773983e-5,1.813241e-4,5.382327e-4,5.193776e-5,2.768855e-4,7.202255e-4,-2.484187e-5,2.271561e-4,1.927058e-4,0.001758849,8.419023e-4,2.150062e-4,0.001059755,8.616834e-4,4.949409e-4,0.00119715,9.703329e-4,3.476496e-4
Feedback,1,1,20,f,2021.2.3,2021_Nov_16_1219,trial,3,23,right,congruent,congruent,j,Feedback,TRUE,n,FALSE,518.6929000192324,NA,241,-2.771786e-4,-2.658165e-4,7.694806e-4,7.252349e-4,4.35259e-4,-7.517063e-4,5.836552e-5,2.291726e-4,-7.223214e-4,9.578317e-4,-1.111256e-4,-1.726697e-4,5.703822e-4,0.003317129,6.397197e-5,2.991332e-4,-1.326205e-4,5.149615e-4,-3.084491e-4,-4.803387e-4
Feedback,1,1,20,f,2021.2.3,2021_Nov_16_1219,trial,3,24,left,congruent,incongruent,f,Feedback,TRUE,f,TRUE,502.43619998218514,NA,242,-7.21314e-5,3.056924e-4,0.001722099,0.001359474,0.001108428,3.354114e-4,5.023452e-4,-3.865426e-4,0.002121327,-1.148158e-4,5.375288e-4,0.001798653,0.003172438,0.003778063,0.002105836,9.816861e-4,0.001455437,6.810513e-4,0.001717185,2.447385e-4
Feedback,1,1,20,f,2021.2.3,2021_Nov_16_1219,trial,3,25,right,incongruent,congruent,n,Feedback,TRUE,n,TRUE,502.14249995769933,NA,243,-0.001106562,-2.073532e-4,-3.290309e-4,-0.001017855,8.013826e-4,2.706361e-4,-0.001229808,-7.003576e-4,-0.001025407,-9.802238e-4,3.090517e-4,5.834339e-4,0.001047019,9.445082e-4,3.93596e-4,5.076063e-4,3.586791e-5,2.887043e-4,7.971132e-5,9.413261e-5
Feedback,1,1,20,f,2021.2.3,2021_Nov_16_1219,trial,3,26,left,congruent,congruent,f,Feedback,TRUE,f,TRUE,813.7804999714717,NA,244,0.002809,0.001821816,0.001053624,8.734304e-4,0.001273789,-1.27513e-4,8.481303e-4,4.489084e-4,-2.009036e-4,0.001947666,0.00225078,0.003893643,0.001693311,0.001594988,8.685118e-4,6.697495e-4,0.001334775,3.452454e-4,6.69012e-4,6.799729e-4
Feedback,1,1,20,f,2021.2.3,2021_Nov_16_1219,trial,3,27,right,congruent,congruent,n,Feedback,TRUE,n,TRUE,373.60900006024167,NA,245,0.001562647,-3.614065e-4,0.002734309,-2.596278e-4,2.704838e-4,-1.787301e-5,5.791378e-4,8.401219e-4,3.377532e-4,3.396445e-4,-6.289093e-5,-1.098834e-4,0.001752222,1.34517e-4,-5.27997e-4,1.446999e-4,-4.260801e-7,-7.573984e-4,-6.758031e-4,-7.579318e-4
Feedback,1,1,20,f,2021.2.3,2021_Nov_16_1219,trial,3,28,left,congruent,incongruent,g,Feedback,TRUE,g,TRUE,709.3190999585206,NA,246,2.798392e-5,0.002158093,-2.096456e-4,-0.001118655,0.002199541,7.903143e-4,0.001896601,-3.426685e-4,0.0010697460000000001,1.114395e-4,2.732666e-4,0.001865449,0.00191089,0.001099673,0.001928056,0.005845588,0.00377629,6.088624e-4,0.001423529,2.5394e-4
Feedback,1,1,20,f,2021.2.3,2021_Nov_16_1219,trial,3,29,right,incongruent,incongruent,n,Feedback,TRUE,n,TRUE,501.0781000019049,NA,247,9.880634e-5,8.317642e-4,8.879297e-4,3.922621e-4,0.002309599,3.597359e-4,8.855942e-4,0.001107809,1.279588e-4,6.577631e-4,-4.030514e-5,4.061412e-4,3.995554e-5,0.001555425,0.006934958,0.002186503,5.941126e-4,7.106218e-4,1.795768e-4,1.261003e-4
Feedback,1,1,20,f,2021.2.3,2021_Nov_16_1219,trial,3,30,left,incongruent,incongruent,g,Feedback,TRUE,g,TRUE,588.8351999456063,NA,248,5.14504e-4,-3.00443e-4,-5.121261e-4,1.477292e-4,2.560574e-4,5.520913e-4,0.003659477,2.874178e-4,-2.982647e-4,3.660854e-4,5.60244e-4,-2.701325e-4,-1.845107e-5,7.618748e-5,-7.004006e-5,-9.77802e-5,0.004968586,0.006687013,0.001437466,0.001975871
Feedback,1,1,20,f,2021.2.3,2021_Nov_16_1219,trial,3,31,right,incongruent,incongruent,j,Feedback,TRUE,j,TRUE,572.6996999583209,NA,249,-7.08123e-4,6.963876e-4,0.001850481,0.002215483,-1.014606e-5,7.919467e-4,5.210908e-4,0.001346786,0.001222486,-9.640527e-4,3.195414e-4,9.749964e-4,0.001986861,0.001112173,8.943719e-4,9.490482e-4,0.003087789,0.005818326,0.001414025,0.00138027
Feedback,1,1,20,f,2021.2.3,2021_Nov_16_1219,trial,3,32,left,incongruent,congruent,g,Feedback,TRUE,g,TRUE,460.2822000160811,NA,250,6.701236e-4,-2.601603e-5,-4.980469e-5,4.069482e-4,8.405165e-4,3.360487e-4,1.192128e-4,5.223509e-4,6.30656e-4,0.001019338,-2.543011e-4,-7.492641e-5,-1.056935e-5,-1.272172e-4,9.685289e-6,-7.066644e-4,-4.793191e-4,-6.409455e-4,-2.358898e-4,-4.747633e-4
Feedback,1,1,20,f,2021.2.3,2021_Nov_16_1219,trial,3,33,right,congruent,incongruent,j,Feedback,TRUE,n,FALSE,427.87710000993684,NA,251,-2.976125e-4,-4.400681e-4,0.002012881,0.001166148,8.628925e-4,1.606306e-4,1.44528e-4,5.588932e-4,-1.586736e-4,1.500554e-4,1.302672e-4,1.686248e-4,0.002790744,6.625036e-4,4.730873e-4,5.885503e-4,8.961603e-4,5.420753e-4,4.445447e-4,4.124e-4
Feedback,1,1,20,f,2021.2.3,2021_Nov_16_1219,trial,3,34,left,incongruent,congruent,g,Feedback,TRUE,g,TRUE,387.8229000256397,NA,252,1.965635e-4,-3.48913e-5,3.686482e-4,7.781768e-4,7.866533e-4,7.820909e-4,0.001296478,4.077144e-4,-5.940907e-4,0.003314278,-7.971897e-4,-9.722014e-4,-8.930737e-4,-0.001050612,-0.001004727,-4.627081e-4,-0.001045008,-6.674487e-4,-6.983881e-4,4.512025e-4
Feedback,1,1,20,f,2021.2.3,2021_Nov_16_1219,trial,3,35,right,congruent,congruent,j,Feedback,TRUE,j,TRUE,419.4607000099495,NA,253,3.160662e-4,2.61612e-4,-1.42368e-4,0.001146999,-4.656916e-4,5.055899e-4,-8.267979e-5,3.414333e-4,-8.069002e-5,-6.914235e-4,2.637956e-4,5.194782e-4,3.019539e-4,3.076283e-4,7.56816e-4,5.390681e-4,0.001240673,8.598221e-4,0.001053719,0.001016378
Feedback,1,1,20,f,2021.2.3,2021_Nov_16_1219,trial,3,36,left,congruent,congruent,f,Feedback,TRUE,f,TRUE,411.07249999186,NA,254,0.001832967,0.001800766,8.747547e-4,0.002992406,0.03177743,0.002714314,7.708916e-4,3.312072e-4,6.816902e-4,4.764823e-4,0.001163689,0.001340024,0.001523096,0.001382962,0.005087514,0.005094819,0.001898383,0.001210947,5.50288e-4,8.172181e-4
Feedback,1,1,20,f,2021.2.3,2021_Nov_16_1219,trial,3,37,right,congruent,incongruent,n,Feedback,TRUE,n,TRUE,562.7762000658549,NA,255,1.325808e-4,-4.160451e-4,-0.001567492,-6.817919e-4,-0.001247392,1.972821e-4,7.278472e-4,0.001641414,-0.002275064,-0.003079621,0.008432982,0.005238142,0.002371646,0.00145158,0.003628255,0.003267867,8.667334e-4,0.001283941,0.00142137,2.933008e-4
Feedback,1,1,20,f,2021.2.3,2021_Nov_16_1219,trial,3,38,left,incongruent,incongruent,f,Feedback,TRUE,f,TRUE,546.5398000087589,NA,256,-4.249653e-4,-7.811629e-4,4.733382e-4,0.001004773,0.002349108,0.002339778,-2.82773e-4,-3.786869e-4,-8.417461e-4,-5.015831e-4,-1.751829e-5,5.541993e-4,-6.271293e-7,0.00163112,0.008084995,0.002380149,0.002231941,0.001799422,1.931805e-4,-2.355785e-4
Feedback,1,1,20,f,2021.2.3,2021_Nov_16_1219,trial,3,39,right,incongruent,congruent,j,Feedback,TRUE,j,TRUE,530.2902000839822,NA,257,-3.212856e-4,-9.04063e-4,-7.955427e-5,-1.830102e-4,-3.328191e-4,-0.001246853,7.622307e-4,-0.001178888,-4.782355e-4,2.240518e-4,9.574033e-4,0.001047668,4.266327e-4,2.720226e-4,0.001972589,0.001137671,0.00129542,8.147446e-4,3.391624e-4,0.001100749
Feedback,1,1,20,f,2021.2.3,2021_Nov_16_1219,trial,3,40,left,congruent,congruent,f,Feedback,TRUE,f,TRUE,426.16610002005496,NA,258,5.943752e-4,-3.494571e-4,-6.221244e-4,-5.907717e-4,-3.774196e-4,-2.404603e-4,6.561214e-5,4.533748e-5,-8.76918e-4,-0.001318843,3.927924e-4,1.844689e-4,-5.46009e-4,-8.81343e-4,-9.315892e-4,-6.429402e-4,-7.810598e-4,-7.870124e-4,-9.507507e-4,-7.777975e-4
Feedback,1,1,20,f,2021.2.3,2021_Nov_16_1219,trial,3,41,right,congruent,congruent,j,Feedback,TRUE,j,TRUE,377.8424999909473,NA,259,-2.939184e-5,-4.15016e-5,2.147714e-4,6.046933e-4,6.605827e-4,2.715413e-4,0.001145954,0.00238064,0.001211669,0.001120758,-3.860617e-4,-1.499568e-4,-7.598297e-4,3.567069e-4,-2.890729e-4,-3.410868e-4,0.00208367,0.003947091,6.95268e-4,-1.50447e-5
Feedback,1,1,20,f,2021.2.3,2021_Nov_16_1219,trial,3,42,left,congruent,congruent,g,Feedback,TRUE,g,TRUE,585.5663000256754,NA,260,-0.001302075,-5.442966e-4,-5.120211e-4,-0.001374112,-0.001031568,-0.001257528,-0.001831293,-0.001396845,0.001309135,-0.001156448,-1.238405e-4,-1.65433e-4,-3.740623e-4,5.889442e-4,-3.400153e-4,-6.450806e-4,2.421641e-4,-2.122764e-5,3.416053e-4,3.523623e-4
Feedback,1,1,20,f,2021.2.3,2021_Nov_16_1219,trial,3,43,right,congruent,congruent,j,Feedback,TRUE,j,TRUE,425.3488999675028,NA,261,2.536657e-4,6.755732e-4,5.484968e-4,-1.528463e-5,8.55932e-4,3.123928e-4,-3.75372e-4,6.014449e-4,-1.325735e-4,1.146712e-4,3.019287e-4,8.510688e-4,1.319643e-4,5.92334e-5,6.130837e-4,-2.918565e-4,-3.354026e-4,5.044393e-4,-1.664308e-5,3.189035e-5
Feedback,1,1,20,f,2021.2.3,2021_Nov_16_1219,trial,3,44,left,congruent,congruent,g,Feedback,TRUE,g,TRUE,441.12000009045005,NA,262,5.030013e-4,0.001508392,2.269426e-4,3.235943e-4,0.002550607,0.001543926,3.427251e-4,-1.278308e-4,5.86824e-5,-5.813967e-5,1.750938e-4,7.086201e-4,3.85376e-4,4.84904e-4,0.002383007,0.004173093,0.002027771,3.225088e-4,1.116522e-4,-3.937586e-4
Feedback,1,1,20,f,2021.2.3,2021_Nov_16_1219,trial,3,45,right,congruent,incongruent,j,Feedback,TRUE,n,FALSE,504.84930007951334,NA,263,3.173362e-4,3.8159e-4,0.002806944,0.01084739,0.002518021,0.001614436,7.882804e-4,7.003549e-4,0.003155794,0.001108928,0.001538246,-1.93612e-4,0.001987426,0.01105082,0.003179705,0.00221087,3.599434e-5,-3.047646e-4,0.001066455,5.146105e-4
Feedback,1,1,20,f,2021.2.3,2021_Nov_16_1219,trial,3,46,left,incongruent,congruent,g,Feedback,TRUE,g,TRUE,432.5535999960266,NA,264,2.743986e-4,3.623343e-4,-6.3424e-5,-7.096659e-4,-8.041367e-4,-2.465448e-4,-5.076802e-4,-1.704746e-4,-6.402694e-4,-3.425414e-4,2.165784e-4,2.106e-4,1.368629e-4,2.068991e-4,9.294209e-4,4.462206e-4,2.892537e-4,-2.7176e-4,1.879974e-5,1.571482e-4
Feedback,1,1,20,f,2021.2.3,2021_Nov_16_1219,trial,3,47,right,congruent,incongruent,j,Feedback,TRUE,j,TRUE,448.29330005450174,NA,265,-0.005170379,-0.001868341,-0.002907924,-0.003070081,-0.003921228,-0.00381286,-0.004672271,-0.003233626,-0.003982162,-0.004217099,-2.627668e-4,0.003769976,0.007266911,0.001492371,9.480747e-4,6.693326e-4,4.303437e-4,-1.031684e-5,0.001464279,0.001070215
